onset	duration	trial	trial_type	rating	resp_time	valence	s_ns	id
10.044703908806696	2	1	iti	4	0.881	positive	nonsocial	pos_nonsoc_101
12.058898359206069	8	1	message	4	0.881	positive	nonsocial	pos_nonsoc_101
20.07496476190863	5	1	rating	4	0.881	positive	nonsocial	pos_nonsoc_101
25.120161034654302	5	2	iti	8	2.704	positive	social	pos_soc_317
30.12414214065211	8	2	message	8	2.704	positive	social	pos_soc_317
38.14021567080272	5	2	rating	8	2.704	positive	social	pos_soc_317
43.17429341355455	3	3	iti	9	1.854	positive	nonsocial	pos_nonsoc_108
46.18953987492205	8	3	message	9	1.854	positive	nonsocial	pos_nonsoc_108
54.205598009790265	5	3	rating	9	1.854	positive	nonsocial	pos_nonsoc_108
59.2343555420739	3	4	iti	7	1.42	positive	nonsocial	pos_nonsoc_109
62.23827022027763	8	4	message	7	1.42	positive	nonsocial	pos_nonsoc_109
70.25431181947351	5	4	rating	7	1.42	positive	nonsocial	pos_nonsoc_109
75.28360847173826	4	5	iti	7	1.287	positive	social	pos_soc_313
79.28689279865648	8	5	message	7	1.287	positive	social	pos_soc_313
87.30303247150368	5	5	rating	7	1.287	positive	social	pos_soc_313
92.33346837466888	2	6	iti	3	1.404	negative	social	neg_soc_401
94.3357742458611	8	6	message	3	1.404	negative	social	neg_soc_401
102.35176595293524	5	6	rating	3	1.404	negative	social	neg_soc_401
107.38028770931851	3	7	iti	6	2.103	positive	social	pos_soc_316
110.38448007280385	8	7	message	6	2.103	positive	social	pos_soc_316
118.40051682533522	5	7	rating	6	2.103	positive	social	pos_soc_316
123.43317706171365	4	8	iti	7	1.537	positive	social	pos_soc_308
127.44976034677165	8	8	message	7	1.537	positive	social	pos_soc_308
135.46588148825685	5	8	rating	7	1.537	positive	social	pos_soc_308
140.49673135346166	2	9	iti	7	1.654	positive	nonsocial	pos_nonsoc_105
142.49862639869025	8	9	message	7	1.654	positive	nonsocial	pos_nonsoc_105
150.51466571710262	5	9	rating	7	1.654	positive	nonsocial	pos_nonsoc_105
155.54478345109965	3	10	iti	7	1.221	positive	social	pos_soc_320
158.5473402083735	8	10	message	7	1.221	positive	social	pos_soc_320
166.56340461539367	5	10	rating	7	1.221	positive	social	pos_soc_320
171.59255387208395	6	11	iti	2	1.554	negative	social	neg_soc_414
177.59580142138293	8	11	message	2	1.554	negative	social	neg_soc_414
185.61186012644612	5	11	rating	2	1.554	negative	social	neg_soc_414
190.64169133713222	4	12	iti	6	0.837	positive	social	pos_soc_303
194.64448843186983	8	12	message	6	0.837	positive	social	pos_soc_303
202.66055654516094	5	12	rating	6	0.837	positive	social	pos_soc_303
207.69127612066222	3	13	iti	9	2.504	positive	nonsocial	pos_nonsoc_119
210.6932572654332	8	13	message	9	2.504	positive	nonsocial	pos_nonsoc_119
218.7092757717037	5	13	rating	9	2.504	positive	nonsocial	pos_nonsoc_119
223.74008059145126	2	14	iti	1	1.854	negative	social	neg_soc_403
225.7420400687879	8	14	message	1	1.854	negative	social	neg_soc_403
233.7581193008955	5	14	rating	1	1.854	negative	social	neg_soc_403
238.79403706499943	6	15	iti	8	1.887	negative	social	neg_soc_405
244.8071735173762	8	15	message	8	1.887	negative	social	neg_soc_405
252.82324248596342	5	15	rating	8	1.887	negative	social	neg_soc_405
257.8526449095225	5	16	iti	7	3.32	negative	nonsocial	neg_nonsoc_206
262.8558032232031	8	16	message	7	3.32	negative	nonsocial	neg_nonsoc_206
270.8718442522004	5	16	rating	7	3.32	negative	nonsocial	neg_nonsoc_206
275.9051667708227	6	17	iti	2	1.804	negative	social	neg_soc_415
281.92096632196626	8	17	message	2	1.804	negative	social	neg_soc_415
289.93700649566745	5	17	rating	2	1.804	negative	social	neg_soc_415
294.96474565852986	2	18	iti	2	3.603	negative	nonsocial	neg_nonsoc_215
296.9697525464944	8	18	message	2	3.603	negative	nonsocial	neg_nonsoc_215
304.985820944883	5	18	rating	2	3.603	negative	nonsocial	neg_nonsoc_215
310.01537047891907	6	19	iti	9	2.787	positive	nonsocial	pos_nonsoc_112
316.0182462606572	8	19	message	9	2.787	positive	nonsocial	pos_nonsoc_112
324.03431066767735	5	19	rating	9	2.787	positive	nonsocial	pos_nonsoc_112
329.0636098858231	5	20	iti	3	1.12	negative	social	neg_soc_402
334.0668289253408	8	20	message	3	1.12	negative	social	neg_soc_402
342.08288706020903	5	20	rating	3	1.12	negative	social	neg_soc_402
347.1116206442748	4	21	iti	5	4.27	positive	nonsocial	pos_nonsoc_120
351.11547801781853	8	21	message	5	4.27	positive	nonsocial	pos_nonsoc_120
359.13156380717555	5	21	rating	5	4.27	positive	nonsocial	pos_nonsoc_120
364.1652535317917	6	22	iti	7	2.253	positive	social	pos_soc_312
370.1806910086998	8	22	message	7	2.253	positive	social	pos_soc_312
378.19673545887053	5	22	rating	7	2.253	positive	social	pos_soc_312
383.2282088330139	5	23	iti	3	1.187	negative	nonsocial	neg_nonsoc_201
388.2292192196983	8	23	message	3	1.187	negative	nonsocial	neg_nonsoc_201
396.2452830565235	5	23	rating	3	1.187	negative	nonsocial	neg_nonsoc_201
401.2755946570396	4	24	iti	1	3.487	negative	social	neg_soc_406
405.2778660313925	8	24	message	1	3.487	negative	social	neg_soc_406
413.2939364254671	5	24	rating	1	3.487	negative	social	neg_soc_406
418.3313820288022	5	25	iti	1	2.237	negative	nonsocial	neg_nonsoc_218
423.343110668131	8	25	message	1	2.237	negative	nonsocial	neg_nonsoc_218
431.3591742198587	5	25	rating	1	2.237	negative	nonsocial	neg_nonsoc_218
436.38627846986856	4	26	iti	7	1.187	positive	nonsocial	pos_nonsoc_111
440.3917691688366	8	26	message	7	1.187	positive	nonsocial	pos_nonsoc_111
448.4078307248783	5	26	rating	7	1.187	positive	nonsocial	pos_nonsoc_111
453.4432298960419	5	27	iti	1	2.653	negative	social	neg_soc_407
458.45697788325197	8	27	message	1	2.653	negative	social	neg_soc_407
466.4730833443573	5	27	rating	1	2.653	negative	social	neg_soc_407
471.49864635553604	4	28	iti	8	1.804	positive	nonsocial	pos_nonsoc_104
475.50565833648943	8	28	message	8	1.804	positive	nonsocial	pos_nonsoc_104
483.521735572911	5	28	rating	8	1.804	positive	nonsocial	pos_nonsoc_104
488.55111604393824	6	29	iti	2	1.67	negative	social	neg_soc_417
494.554182271022	8	29	message	2	1.67	negative	social	neg_soc_417
502.57022387021425	5	29	rating	2	1.67	negative	social	neg_soc_417
507.599174698822	5	30	iti	3	1.054	negative	social	neg_soc_409
512.6026757000873	8	30	message	3	1.054	negative	social	neg_soc_409
520.6188202195954	5	30	rating	3	1.054	negative	social	neg_soc_409
525.6536871131211	2	31	iti	8	2.054	positive	social	pos_soc_302
527.6682154130722	8	31	message	8	2.054	positive	social	pos_soc_302
535.6842843816557	5	31	rating	8	2.054	positive	social	pos_soc_302
540.7225345310471	3	32	iti	6	3.52	positive	social	pos_soc_305
543.7336011732332	8	32	message	6	3.52	positive	social	pos_soc_305
551.7496724226003	5	32	rating	6	3.52	positive	social	pos_soc_305
556.7787734977646	4	33	iti	2	1.37	negative	nonsocial	neg_nonsoc_217
560.782240857483	8	33	message	2	1.37	negative	nonsocial	neg_nonsoc_217
568.7982884437297	5	33	rating	2	1.37	negative	nonsocial	neg_nonsoc_217
573.8237616490987	3	34	iti	3	2.487	negative	nonsocial	neg_nonsoc_207
576.8310028486994	8	34	message	3	2.487	negative	nonsocial	neg_nonsoc_207
584.847066685521	5	34	rating	3	2.487	negative	nonsocial	neg_nonsoc_207
589.8769144318794	3	35	iti	3	2.27	negative	nonsocial	neg_nonsoc_205
592.879734334445	8	35	message	3	2.27	negative	nonsocial	neg_nonsoc_205
600.89580045205	5	35	rating	3	2.27	negative	nonsocial	neg_nonsoc_205
605.9299580221959	4	36	iti	8	1.553	positive	social	pos_soc_301
609.9450636452384	8	36	message	8	1.553	positive	social	pos_soc_301
617.9611186440306	5	36	rating	8	1.553	positive	social	pos_soc_301
622.987514140852	4	37	iti	9	2.537	positive	nonsocial	pos_nonsoc_107
626.9937135930086	8	37	message	9	2.537	positive	nonsocial	pos_nonsoc_107
635.0097697321908	5	37	rating	9	2.537	positive	nonsocial	pos_nonsoc_107
640.0392006655311	6	38	iti	2	1.404	negative	nonsocial	neg_nonsoc_203
646.0422047412903	8	38	message	2	1.404	negative	nonsocial	neg_nonsoc_203
654.058271429094	5	38	rating	2	1.404	negative	nonsocial	neg_nonsoc_203
659.084080194596	6	39	iti	7	1.987	negative	nonsocial	neg_nonsoc_209
665.0907035872151	8	39	message	7	1.987	negative	nonsocial	neg_nonsoc_209
673.1067642879643	5	39	rating	7	1.987	negative	nonsocial	neg_nonsoc_209
678.1327241553117	4	40	iti	3	1.27	negative	nonsocial	neg_nonsoc_204
682.1393592369423	8	40	message	3	1.27	negative	nonsocial	neg_nonsoc_204
690.1554244992549	5	40	rating	3	1.27	negative	nonsocial	neg_nonsoc_204
