onset	duration	trial	trial_type	rating	resp_time	valence	s_ns	id
10.134278763551265	5	1	iti	5.0	0.0	negative	social	neg_soc_411
15.135193650028668	8	1	message	5.0	0.0	negative	social	neg_soc_411
23.151329464904848	5	1	rating	5.0	0.0	negative	social	neg_soc_411
28.250486167089548	2	2	iti	10	4.707	negative	nonsocial	neg_nonsoc_216
30.250802343187388	8	2	message	10	4.707	negative	nonsocial	neg_nonsoc_216
38.266935877269134	5	2	rating	10	4.707	negative	nonsocial	neg_nonsoc_216
43.35282173627638	6	3	iti	8	1.875	negative	nonsocial	neg_nonsoc_212
49.36612308517215	8	3	message	8	1.875	negative	nonsocial	neg_nonsoc_212
57.38225832984608	5	3	rating	8	1.875	negative	nonsocial	neg_nonsoc_212
62.50726677593775	4	4	iti	2	2.375	negative	social	neg_soc_418
66.51492228597635	8	4	message	2	2.375	negative	social	neg_soc_418
74.53105610515922	5	4	rating	2	2.375	negative	social	neg_soc_418
79.62619432029896	2	5	iti	9	1.508	positive	nonsocial	pos_nonsoc_118
81.63053782153293	8	5	message	9	1.508	positive	nonsocial	pos_nonsoc_118
89.64666707911238	5	5	rating	9	1.508	positive	nonsocial	pos_nonsoc_118
94.74513070275134	3	6	iti	3	0.875	negative	social	neg_soc_419
97.74606782704359	8	6	message	3	0.875	negative	social	neg_soc_419
105.76217997861386	5	6	rating	3	0.875	negative	social	neg_soc_419
110.85779516636103	5	7	iti	6	0.992	positive	social	pos_soc_319
115.86145927387406	8	7	message	6	0.992	positive	social	pos_soc_319
123.87760050565703	5	7	rating	6	0.992	positive	social	pos_soc_319
128.96715617417067	4	8	iti	7	0.842	negative	nonsocial	neg_nonsoc_219
132.97693482524483	8	8	message	7	0.842	negative	nonsocial	neg_nonsoc_219
140.99309401834034	5	8	rating	7	0.842	negative	nonsocial	neg_nonsoc_219
146.09136348876928	4	9	iti	3	1.108	positive	social	pos_soc_318
150.09239498121315	8	9	message	3	1.108	positive	social	pos_soc_318
158.1084982946777	5	9	rating	3	1.108	positive	social	pos_soc_318
163.18243646043993	6	10	iti	10	2.708	positive	nonsocial	pos_nonsoc_116
169.19105190277332	8	10	message	10	2.708	positive	nonsocial	pos_nonsoc_116
177.20716262883798	5	10	rating	10	2.708	positive	nonsocial	pos_nonsoc_116
182.30515327128523	6	11	iti	3	1.542	negative	nonsocial	neg_nonsoc_214
188.306378346766	8	11	message	3	1.542	negative	nonsocial	neg_nonsoc_214
196.32250560863758	5	11	rating	3	1.542	negative	nonsocial	neg_nonsoc_214
201.40600831524353	2	12	iti	4	0.792	positive	nonsocial	pos_nonsoc_102
203.42196366170538	8	12	message	4	0.792	positive	nonsocial	pos_nonsoc_102
211.43811572730192	5	12	rating	4	0.792	positive	nonsocial	pos_nonsoc_102
216.51373541392968	5	13	iti	3	0.942	negative	nonsocial	neg_nonsoc_211
221.5207121004205	8	13	message	3	0.942	negative	nonsocial	neg_nonsoc_211
229.53684392391006	5	13	rating	3	0.942	negative	nonsocial	neg_nonsoc_211
234.6357813840441	4	14	iti	7	1.359	positive	nonsocial	pos_nonsoc_113
238.63617396699556	8	14	message	7	1.359	positive	nonsocial	pos_nonsoc_113
246.65231120737735	5	14	rating	7	1.359	positive	nonsocial	pos_nonsoc_113
251.7536386623251	4	15	iti	6	0.408	positive	social	pos_soc_310
255.76830564108968	8	15	message	6	0.408	positive	social	pos_soc_310
263.7844180777465	5	15	rating	6	0.408	positive	social	pos_soc_310
268.87881075592304	5	16	iti	9	2.492	positive	nonsocial	pos_nonsoc_106
273.883701649509	8	16	message	9	2.492	positive	nonsocial	pos_nonsoc_106
281.89983090708847	5	16	rating	9	2.492	positive	nonsocial	pos_nonsoc_106
286.9445927757333	4	17	iti	8	2.642	negative	nonsocial	neg_nonsoc_220
290.9491677783226	8	17	message	8	2.642	negative	nonsocial	neg_nonsoc_220
298.9652944700065	5	17	rating	8	2.642	negative	nonsocial	neg_nonsoc_220
304.0833119745803	4	18	iti	2	1.608	positive	social	pos_soc_309
308.0979595665267	8	18	message	2	1.608	positive	social	pos_soc_309
316.11407684990263	5	18	rating	2	1.608	positive	social	pos_soc_309
321.2177053484047	6	19	iti	6	0.542	negative	nonsocial	neg_nonsoc_208
327.2299464097305	8	19	message	6	0.542	negative	nonsocial	neg_nonsoc_208
335.24608108420216	5	19	rating	6	0.542	negative	nonsocial	neg_nonsoc_208
340.3206153944484	4	20	iti	1	2.841	negative	nonsocial	neg_nonsoc_213
344.3287470217765	8	20	message	1	2.841	negative	nonsocial	neg_nonsoc_213
352.34487913035264	5	20	rating	1	2.841	negative	nonsocial	neg_nonsoc_213
357.4605399968568	2	21	iti	4	1.025	negative	social	neg_soc_420
359.46097962133354	8	21	message	4	1.025	negative	social	neg_soc_420
367.4771465121303	5	21	rating	4	1.025	negative	social	neg_soc_420
372.5309985149215	3	22	iti	2	2.025	positive	nonsocial	pos_nonsoc_115
375.5432256063359	8	22	message	2	2.025	positive	nonsocial	pos_nonsoc_115
383.5593457407085	5	22	rating	2	2.025	positive	nonsocial	pos_nonsoc_115
388.6327963851654	5	23	iti	7	1.108	negative	social	neg_soc_404
393.6419455350406	8	23	message	7	1.108	negative	social	neg_soc_404
401.6580776436167	5	23	rating	7	1.108	negative	social	neg_soc_404
406.77768771779665	6	24	iti	4	0.942	positive	social	pos_soc_314
412.79059334764315	8	24	message	4	0.942	positive	social	pos_soc_314
420.80672859233164	5	24	rating	4	0.942	positive	social	pos_soc_314
425.87236692165607	2	25	iti	3	0.908	negative	nonsocial	neg_nonsoc_210
427.8728675575694	8	25	message	3	0.908	negative	nonsocial	neg_nonsoc_210
435.88899938105897	5	25	rating	3	0.908	negative	nonsocial	neg_nonsoc_210
441.0040814941749	3	26	iti	8	1.908	negative	social	neg_soc_416
444.00506195369235	8	26	message	8	1.908	negative	social	neg_soc_416
452.0211914963729	5	26	rating	8	1.908	negative	social	neg_soc_416
457.14295892362134	5	27	iti	4	0.608	negative	social	neg_soc_410
462.1537950112688	8	27	message	4	0.608	negative	social	neg_soc_410
470.1699182817392	5	27	rating	4	0.608	negative	social	neg_soc_410
475.2768815970485	3	28	iti	6	0.475	negative	social	neg_soc_413
478.2859868414962	8	28	message	6	0.475	negative	social	neg_soc_413
486.3021141033678	5	28	rating	6	0.475	negative	social	neg_soc_413
491.38423863569915	6	29	iti	7	1.408	positive	nonsocial	pos_nonsoc_114
497.3846189593314	8	29	message	7	1.408	positive	nonsocial	pos_nonsoc_114
505.40077188023133	5	29	rating	7	1.408	positive	nonsocial	pos_nonsoc_114
510.4999531010253	4	30	iti	6	0.842	positive	nonsocial	pos_nonsoc_117
514.5001030637213	8	30	message	6	0.842	positive	nonsocial	pos_nonsoc_117
522.5162049516803	5	30	rating	6	0.842	positive	nonsocial	pos_nonsoc_117
527.6294088248251	6	31	iti	3	0.875	positive	social	pos_soc_311
533.6320876261161	8	31	message	3	0.875	positive	social	pos_soc_311
541.6482245813968	5	31	rating	3	0.875	positive	social	pos_soc_311
546.7229405004473	3	32	iti	2	3.608	negative	nonsocial	neg_nonsoc_202
549.7309540963033	8	32	message	2	3.608	negative	nonsocial	neg_nonsoc_202
557.7470882005873	5	32	rating	2	3.608	negative	nonsocial	neg_nonsoc_202
562.8743905627343	3	33	iti	5.0	0.0	negative	social	neg_soc_412
565.8797917856427	8	33	message	5.0	0.0	negative	social	neg_soc_412
573.8959543999372	5	33	rating	5.0	0.0	negative	social	neg_soc_412
578.9885991289048	6	34	iti	7	1.308	positive	social	pos_soc_315
584.99513533563	8	34	message	7	1.308	positive	social	pos_soc_315
593.0112645932095	5	34	rating	7	1.308	positive	social	pos_soc_315
598.1256650318101	3	35	iti	6	1.141	positive	social	pos_soc_307
601.127337999671	8	35	message	6	1.141	positive	social	pos_soc_307
609.1434712486516	5	35	rating	6	1.141	positive	social	pos_soc_307
614.2915554182109	5	36	iti	10	2.709	positive	nonsocial	pos_nonsoc_103
619.2927172014315	8	36	message	10	2.709	positive	nonsocial	pos_nonsoc_103
627.3088527312211	5	36	rating	10	2.709	positive	nonsocial	pos_nonsoc_103
632.435658448856	2	37	iti	3	1.242	positive	nonsocial	pos_nonsoc_110
634.441650399327	8	37	message	3	1.242	positive	nonsocial	pos_nonsoc_110
642.457735751479	5	37	rating	3	1.242	positive	nonsocial	pos_nonsoc_110
647.569635861495	4	38	iti	3	1.341	negative	social	neg_soc_408
651.5737413040915	8	38	message	3	1.341	negative	social	neg_soc_408
659.5899133266939	5	38	rating	3	1.341	negative	social	neg_soc_408
664.7107188259397	3	39	iti	1	2.974	positive	social	pos_soc_304
667.7226377240586	8	39	message	1	2.974	positive	social	pos_soc_304
675.7387353355152	5	39	rating	1	2.974	positive	social	pos_soc_304
680.869768803721	4	40	iti	7	1.274	positive	social	pos_soc_306
684.8714745580946	8	40	message	7	1.274	positive	social	pos_soc_306
692.8875604804489	5	40	rating	7	1.274	positive	social	pos_soc_306
