onset	duration	trial	trial_type	rating	resp_time	valence	s_ns	id
10.097852170161786	5	1	iti	7	1.298	negative	social	neg_soc_414
15.101860053648124	8	1	message	7	1.298	negative	social	neg_soc_414
23.117875051990268	5	1	rating	7	1.298	negative	social	neg_soc_414
28.268080021967762	6	2	iti	6	0.475	positive	social	pos_soc_305
34.28356531141617	8	2	message	6	0.475	positive	social	pos_soc_305
42.299578314094106	5	2	rating	6	0.475	positive	social	pos_soc_305
47.39981160838215	2	3	iti	8	2.175	negative	social	neg_soc_406
49.41561563547293	8	3	message	8	2.175	negative	social	neg_soc_406
57.43161666410742	5	3	rating	8	2.175	negative	social	neg_soc_406
62.504922899985104	5	4	iti	7	2.642	positive	nonsocial	pos_nonsoc_104
67.51408475398785	8	4	message	7	2.642	positive	nonsocial	pos_nonsoc_104
75.53009661627584	5	4	rating	7	2.642	positive	nonsocial	pos_nonsoc_104
80.61193150733016	3	5	iti	7	2.442	positive	social	pos_soc_316
83.61271894324454	8	5	message	7	2.442	positive	social	pos_soc_316
91.62873536707775	5	5	rating	7	2.442	positive	social	pos_soc_316
96.73702234613302	4	6	iti	8	2.675	positive	social	pos_soc_308
100.74459649896016	8	6	message	8	2.675	positive	social	pos_soc_308
108.76061320787994	5	6	rating	8	2.675	positive	social	pos_soc_308
113.84345990561997	5	7	iti	7	2.342	positive	nonsocial	pos_nonsoc_111
118.8597312055208	8	7	message	7	2.342	positive	nonsocial	pos_nonsoc_111
126.87575048030703	5	7	rating	7	2.342	positive	nonsocial	pos_nonsoc_111
131.9764784166473	3	8	iti	7	0.975	positive	nonsocial	pos_nonsoc_119
134.99169685598463	8	8	message	7	0.975	positive	nonsocial	pos_nonsoc_119
143.00771242451447	5	8	rating	7	0.975	positive	nonsocial	pos_nonsoc_119
148.107031415042	4	9	iti	8	1.808	positive	social	pos_soc_303
152.12357925833203	8	9	message	8	1.808	positive	social	pos_soc_303
160.1395959672518	5	9	rating	8	1.808	positive	social	pos_soc_303
165.23600954159338	5	10	iti	7	4.441	negative	social	neg_soc_417
170.23871111393964	8	10	message	7	4.441	negative	social	neg_soc_417
178.25472411660303	5	10	rating	7	4.441	negative	social	neg_soc_417
183.34494654016453	5	11	iti	7	1.375	negative	nonsocial	neg_nonsoc_217
188.35383498684678	8	11	message	7	1.375	negative	nonsocial	neg_nonsoc_217
196.36985654239834	5	11	rating	7	1.375	negative	nonsocial	neg_nonsoc_217
201.45130256212724	4	12	iti	7	2.208	negative	nonsocial	neg_nonsoc_215
205.4523933404853	8	12	message	7	2.208	negative	nonsocial	neg_nonsoc_215
213.46840947921737	5	12	rating	7	2.208	negative	nonsocial	neg_nonsoc_215
218.5627110603382	4	13	iti	7	1.192	negative	nonsocial	neg_nonsoc_203
222.56760473795293	8	13	message	7	1.192	negative	nonsocial	neg_nonsoc_203
230.58362344255147	5	13	rating	7	1.192	negative	nonsocial	neg_nonsoc_203
235.662841434867	3	14	iti	5.0	0.0	negative	nonsocial	neg_nonsoc_205
238.66624006759957	8	14	message	5.0	0.0	negative	nonsocial	neg_nonsoc_205
246.6822630486422	5	14	rating	5.0	0.0	negative	nonsocial	neg_nonsoc_205
251.78300238882366	2	15	iti	7	2.341	positive	nonsocial	pos_nonsoc_108
253.79829124694515	8	15	message	7	2.341	positive	nonsocial	pos_nonsoc_108
261.8143110919191	5	15	rating	7	2.341	positive	nonsocial	pos_nonsoc_108
266.9059635584272	2	16	iti	7	1.208	negative	social	neg_soc_402
268.9136788339092	8	16	message	7	1.208	negative	social	neg_soc_402
276.9297021000384	5	16	rating	7	1.208	negative	social	neg_soc_402
282.0148994166084	3	17	iti	7	1.474	negative	nonsocial	neg_nonsoc_201
285.0289258684061	8	17	message	7	1.474	negative	nonsocial	neg_nonsoc_201
293.0450261105434	5	17	rating	7	1.474	negative	nonsocial	neg_nonsoc_201
298.11948299499636	4	18	iti	7	3.842	negative	nonsocial	neg_nonsoc_209
302.1275033234997	8	18	message	7	3.842	negative	nonsocial	neg_nonsoc_209
310.1435824685177	5	18	rating	7	3.842	negative	nonsocial	neg_nonsoc_209
315.2479282766144	5	19	iti	6	0.541	positive	nonsocial	pos_nonsoc_101
320.2593133113987	8	19	message	6	0.541	positive	nonsocial	pos_nonsoc_101
328.27535282803	5	19	rating	6	0.541	positive	nonsocial	pos_nonsoc_101
333.36581644303806	6	20	iti	9	4.775	positive	social	pos_soc_320
339.3743362602254	8	20	message	9	4.775	positive	social	pos_soc_320
347.3904225326405	5	20	rating	9	4.775	positive	social	pos_soc_320
352.48100617318414	2	21	iti	7	4.508	positive	nonsocial	pos_nonsoc_109
354.4897446592222	8	21	message	7	4.508	positive	nonsocial	pos_nonsoc_109
362.50580356239516	5	21	rating	7	4.508	positive	nonsocial	pos_nonsoc_109
367.6620098090207	6	22	iti	5.0	0.0	positive	social	pos_soc_317
373.67145020209136	8	22	message	5.0	0.0	positive	social	pos_soc_317
381.68748743794276	5	22	rating	5.0	0.0	positive	social	pos_soc_317
386.75890034943586	4	23	iti	7	4.875	negative	nonsocial	neg_nonsoc_207
390.77002623170847	8	23	message	7	4.875	negative	nonsocial	neg_nonsoc_207
398.7860141459096	5	23	rating	7	4.875	negative	nonsocial	neg_nonsoc_207
403.8812018062599	3	24	iti	10	4.975	negative	social	neg_soc_403
406.8853197369026	8	24	message	10	4.975	negative	social	neg_soc_403
414.90133844150114	5	24	rating	10	4.975	negative	social	neg_soc_403
419.9876741475018	4	25	iti	5.0	0.0	negative	nonsocial	neg_nonsoc_206
424.00053683629085	8	25	message	5.0	0.0	negative	nonsocial	neg_nonsoc_206
432.01655012405536	5	25	rating	5.0	0.0	negative	nonsocial	neg_nonsoc_206
437.1419953375298	4	26	iti	8	4.208	positive	social	pos_soc_302
441.1490605935105	8	26	message	8	4.208	positive	social	pos_soc_302
449.16509953993955	5	26	rating	8	4.208	positive	social	pos_soc_302
454.29383533465443	5	27	iti	10	4.274	negative	social	neg_soc_407
459.29754158627475	8	27	message	10	4.274	negative	social	neg_soc_407
467.31355915048334	5	27	rating	10	4.274	negative	social	neg_soc_407
472.44722768102656	6	28	iti	8	1.742	negative	nonsocial	neg_nonsoc_218
478.46258040070825	8	28	message	8	1.742	negative	nonsocial	neg_nonsoc_218
486.4786028115632	5	28	rating	8	1.742	negative	nonsocial	neg_nonsoc_218
491.6029666548566	6	29	iti	5.0	0.0	negative	social	neg_soc_405
497.61096103959426	8	29	message	5.0	0.0	negative	social	neg_soc_405
505.6269746124599	5	29	rating	5.0	0.0	negative	social	neg_soc_405
510.72195842897054	3	30	iti	6	2.841	negative	social	neg_soc_401
513.7262693697994	8	30	message	6	2.841	negative	social	neg_soc_401
521.7422758152534	5	30	rating	6	2.841	negative	social	neg_soc_401
526.8617300155311	4	31	iti	5.0	0.0	positive	social	pos_soc_312
530.8748036755715	8	31	message	5.0	0.0	positive	social	pos_soc_312
538.8908805398096	5	31	rating	5.0	0.0	positive	social	pos_soc_312
544.0097266297234	4	32	iti	5.0	0.0	negative	social	neg_soc_415
548.0233165991231	8	32	message	5.0	0.0	negative	social	neg_soc_415
556.0393689450866	5	32	rating	5.0	0.0	negative	social	neg_soc_415
561.1302949862584	3	33	iti	7	2.008	positive	social	pos_soc_313
564.1386762466573	8	33	message	7	2.008	positive	social	pos_soc_313
572.1546695776924	5	33	rating	7	2.008	positive	social	pos_soc_313
577.2447180925228	2	34	iti	6	3.741	positive	nonsocial	pos_nonsoc_112
579.2540364643792	8	34	message	6	3.741	positive	nonsocial	pos_nonsoc_112
587.2700557391654	5	34	rating	6	3.741	positive	nonsocial	pos_nonsoc_112
592.3557836199034	2	35	iti	8	4.941	positive	nonsocial	pos_nonsoc_120
594.3694214854768	8	35	message	8	4.941	positive	nonsocial	pos_nonsoc_120
602.3854376242089	5	35	rating	8	4.941	positive	nonsocial	pos_nonsoc_120
607.4989743661281	4	36	iti	9	2.875	positive	social	pos_soc_301
611.5013033176365	8	36	message	9	2.875	positive	social	pos_soc_301
619.5173171755887	5	36	rating	9	2.875	positive	social	pos_soc_301
624.6078552007384	3	37	iti	6	3.042	negative	social	neg_soc_409
627.6166028098523	8	37	message	6	3.042	negative	social	neg_soc_409
635.6326206591621	5	37	rating	6	3.042	negative	social	neg_soc_409
640.7109973323531	6	38	iti	5.0	0.0	positive	nonsocial	pos_nonsoc_107
646.7149858292833	8	38	message	5.0	0.0	positive	nonsocial	pos_nonsoc_107
654.7309897088708	5	38	rating	5.0	0.0	positive	nonsocial	pos_nonsoc_107
659.8271652278345	6	39	iti	9	3.875	positive	nonsocial	pos_nonsoc_105
665.8300267391751	8	39	message	9	3.875	positive	nonsocial	pos_nonsoc_105
673.8460460139613	5	39	rating	9	3.875	positive	nonsocial	pos_nonsoc_105
678.916116692184	6	40	iti	5.0	0.0	negative	nonsocial	neg_nonsoc_204
684.9284108989959	8	40	message	5.0	0.0	negative	nonsocial	neg_nonsoc_204
692.9444247569627	5	40	rating	5.0	0.0	negative	nonsocial	neg_nonsoc_204
