onset	duration	trial	trial_type	rating	resp_time	valence	s_ns	id
10.090619847775542	4	1	iti	1	1.802	negative	social	neg_soc_417
14.104650290926202	8	1	message	1	1.802	negative	social	neg_soc_417
22.1207066282318	5	1	rating	1	1.802	negative	social	neg_soc_417
27.197334805950504	3	2	iti	6	0.728	positive	nonsocial	pos_nonsoc_107
30.203330095589536	8	2	message	6	0.728	positive	nonsocial	pos_nonsoc_107
38.219344238646045	5	2	rating	6	0.728	positive	nonsocial	pos_nonsoc_107
43.30461311437148	4	3	iti	6	1.327	positive	social	pos_soc_301
47.31854405892136	8	3	message	6	1.327	positive	social	pos_soc_301
55.3345636188069	5	3	rating	6	1.327	positive	social	pos_soc_301
60.40159260483051	6	4	iti	6	1.128	negative	social	neg_soc_409
66.41692964422555	8	4	message	6	1.128	negative	social	neg_soc_409
74.43295062959214	5	4	rating	6	1.128	negative	social	neg_soc_409
79.49385916871051	5	5	iti	0	2.96	negative	nonsocial	neg_nonsoc_215
84.4987300386274	8	5	message	0	2.96	negative	nonsocial	neg_nonsoc_215
92.51475102399445	5	5	rating	0	2.96	negative	nonsocial	neg_nonsoc_215
97.59006775883245	3	6	iti	10	3.361	positive	nonsocial	pos_nonsoc_108
100.59732573988867	8	6	message	10	3.361	positive	nonsocial	pos_nonsoc_108
108.6133937661416	5	6	rating	10	3.361	positive	nonsocial	pos_nonsoc_108
113.68490902720305	3	7	iti	6	1.395	negative	social	neg_soc_401
116.6959738988653	8	7	message	6	1.395	negative	social	neg_soc_401
124.71202082799346	5	7	rating	6	1.395	negative	social	neg_soc_401
129.8105669225024	5	8	iti	6	4.728	positive	social	pos_soc_302
134.81114110640738	8	8	message	6	4.728	positive	social	pos_soc_302
142.82715524946343	5	8	rating	6	4.728	positive	social	pos_soc_302
147.92862072986327	4	9	iti	1	1.528	negative	social	neg_soc_407
151.9430252193315	8	9	message	1	1.528	negative	social	neg_soc_407
159.95903993258025	5	9	rating	1	1.528	negative	social	neg_soc_407
165.0249915397676	6	10	iti	3	1.227	negative	nonsocial	neg_nonsoc_217
171.04140766857654	8	10	message	3	1.227	negative	nonsocial	neg_nonsoc_217
179.05742437749905	5	10	rating	3	1.227	negative	nonsocial	neg_nonsoc_217
184.10705621841998	4	11	iti	4	1.078	negative	nonsocial	neg_nonsoc_207
188.12326251636796	8	11	message	4	1.078	negative	nonsocial	neg_nonsoc_207
196.1393142921329	5	11	rating	4	1.078	negative	nonsocial	neg_nonsoc_207
201.22355397029332	4	12	iti	6	0.562	positive	social	pos_soc_313
205.23851354221551	8	12	message	6	0.562	positive	social	pos_soc_313
213.25452882565696	5	12	rating	6	0.562	positive	social	pos_soc_313
218.3249322112324	2	13	iti	8	2.96	positive	nonsocial	pos_nonsoc_105
220.33719933390103	8	13	message	8	2.96	positive	nonsocial	pos_nonsoc_105
228.35325110966596	5	13	rating	8	2.96	positive	nonsocial	pos_nonsoc_105
233.44443202691764	6	14	iti	0	2.228	negative	social	neg_soc_415
239.4522838635221	8	14	message	0	2.228	negative	social	neg_soc_415
247.46830171282954	5	14	rating	0	2.228	negative	social	neg_soc_415
252.5591293957923	5	15	iti	7	2.361	positive	social	pos_soc_312
257.56741971047313	8	15	message	7	2.361	positive	social	pos_soc_312
265.58343214295155	5	15	rating	7	2.361	positive	social	pos_soc_312
270.6862660854881	3	16	iti	5.0	0.0	negative	nonsocial	neg_nonsoc_218
273.69939248834	8	16	message	5.0	0.0	negative	nonsocial	neg_nonsoc_218
281.7153618712805	5	16	rating	5.0	0.0	negative	nonsocial	neg_nonsoc_218
286.7892166324027	5	17	iti	2	1.36	negative	social	neg_soc_406
291.797857615506	8	17	message	2	1.36	negative	social	neg_soc_406
299.813876890295	5	17	rating	2	1.36	negative	social	neg_soc_406
304.8865336768554	4	18	iti	0	1.694	negative	nonsocial	neg_nonsoc_201
308.8964057056887	8	18	message	0	1.694	negative	nonsocial	neg_nonsoc_201
316.91242098913017	5	18	rating	0	1.694	negative	nonsocial	neg_nonsoc_201
321.9622823325549	5	19	iti	9	2.227	positive	nonsocial	pos_nonsoc_104
326.9782092361497	8	19	message	9	2.227	positive	nonsocial	pos_nonsoc_104
334.9942262301688	5	19	rating	9	2.227	positive	nonsocial	pos_nonsoc_104
340.05461247290486	4	20	iti	9	2.494	positive	nonsocial	pos_nonsoc_111
344.06009886568745	8	20	message	9	2.494	positive	nonsocial	pos_nonsoc_111
352.0761132938396	5	20	rating	9	2.494	positive	nonsocial	pos_nonsoc_111
357.1499107506097	4	21	iti	10	1.761	positive	social	pos_soc_303
361.15864610058134	8	21	message	10	1.761	positive	social	pos_soc_303
369.1746645200815	5	21	rating	10	1.761	positive	social	pos_soc_303
374.2890092248599	5	22	iti	7	2.161	positive	social	pos_soc_305
379.2904463951995	8	22	message	7	2.161	positive	social	pos_soc_305
387.3064648147001	5	22	rating	7	2.161	positive	social	pos_soc_305
392.3753771467391	3	23	iti	2	1.127	negative	nonsocial	neg_nonsoc_203
395.3890882820583	8	23	message	2	1.127	negative	nonsocial	neg_nonsoc_203
403.40512836887547	5	23	rating	2	1.127	negative	nonsocial	neg_nonsoc_203
408.4840073817127	5	24	iti	8	2.061	positive	social	pos_soc_308
413.48755226883895	8	24	message	8	2.061	positive	social	pos_soc_308
421.5035715436279	5	24	rating	8	2.061	positive	social	pos_soc_308
426.553218779748	2	25	iti	4	0.71	negative	nonsocial	neg_nonsoc_204
428.56961067537304	8	25	message	4	0.71	negative	nonsocial	neg_nonsoc_204
436.58562738429555	5	25	rating	4	0.71	negative	nonsocial	neg_nonsoc_204
441.67786686402906	4	26	iti	6	4.728	positive	nonsocial	pos_nonsoc_119
445.6848115242756	8	26	message	6	4.728	positive	nonsocial	pos_nonsoc_119
453.7008302288723	5	26	rating	6	4.728	positive	nonsocial	pos_nonsoc_119
458.75914752791596	3	27	iti	9	1.394	positive	social	pos_soc_316
461.76679609087387	8	27	message	9	1.394	positive	social	pos_soc_316
469.782818501722	5	27	rating	9	1.394	positive	social	pos_soc_316
474.8539879409973	2	28	iti	2	1.161	negative	nonsocial	neg_nonsoc_205
476.86551923017123	8	28	message	2	1.161	negative	nonsocial	neg_nonsoc_205
484.8815424963086	5	28	rating	2	1.161	negative	nonsocial	neg_nonsoc_205
489.9453826804579	6	29	iti	9	1.527	positive	nonsocial	pos_nonsoc_109
495.9472420783859	8	29	message	9	1.527	positive	nonsocial	pos_nonsoc_109
503.9632579320196	5	29	rating	9	1.527	positive	nonsocial	pos_nonsoc_109
509.030270097363	6	30	iti	4	0.861	negative	social	neg_soc_402
515.0456222468606	8	30	message	4	0.861	negative	social	neg_soc_402
523.061637530302	5	30	rating	4	0.861	negative	social	neg_soc_402
528.1276495779007	6	31	iti	9	1.428	positive	nonsocial	pos_nonsoc_112
534.1440046961056	8	31	message	9	1.428	positive	nonsocial	pos_nonsoc_112
542.1600222603174	5	31	rating	9	1.428	positive	nonsocial	pos_nonsoc_112
547.2833996704853	2	32	iti	8	3.627	positive	social	pos_soc_317
549.292714621191	8	32	message	8	3.627	positive	social	pos_soc_317
557.3087501464679	5	32	rating	8	3.627	positive	social	pos_soc_317
562.3716857201262	4	33	iti	2	1.194	negative	nonsocial	neg_nonsoc_206
566.3746093824611	8	33	message	2	1.194	negative	nonsocial	neg_nonsoc_206
574.3906275168656	5	33	rating	2	1.194	negative	nonsocial	neg_nonsoc_206
579.4417364416049	2	34	iti	6	0.66	negative	nonsocial	neg_nonsoc_209
581.4566655082253	8	34	message	6	0.66	negative	nonsocial	neg_nonsoc_209
589.4727058801391	5	34	rating	6	0.66	negative	nonsocial	neg_nonsoc_209
594.5428475473309	4	35	iti	1	1.694	negative	social	neg_soc_403
598.5551867993581	8	35	message	1	1.694	negative	social	neg_soc_403
606.571261382825	5	35	rating	1	1.694	negative	social	neg_soc_403
611.6346112013757	2	36	iti	8	2.761	positive	social	pos_soc_320
613.6372774217716	8	36	message	8	2.761	positive	social	pos_soc_320
621.6533035388716	5	36	rating	8	2.761	positive	social	pos_soc_320
626.7222369680353	3	37	iti	2	1.194	negative	social	neg_soc_414
629.7359161725708	8	37	message	2	1.194	negative	social	neg_soc_414
637.751929460338	5	37	rating	2	1.194	negative	social	neg_soc_414
642.8467017354092	6	38	iti	0	1.728	negative	social	neg_soc_405
648.8509602185204	8	38	message	0	1.728	negative	social	neg_soc_405
656.8669723659027	5	38	rating	0	1.728	negative	social	neg_soc_405
661.9295036730377	3	39	iti	7	2.76	positive	nonsocial	pos_nonsoc_120
664.9329342365563	8	39	message	7	2.76	positive	nonsocial	pos_nonsoc_120
672.9489498050939	5	39	rating	7	2.76	positive	nonsocial	pos_nonsoc_120
678.0261706979754	6	40	iti	8	1.861	positive	nonsocial	pos_nonsoc_101
684.0312924526174	8	40	message	8	1.861	positive	nonsocial	pos_nonsoc_101
692.0473356754942	5	40	rating	8	1.861	positive	nonsocial	pos_nonsoc_101
