onset	duration	trial	trial_type	rating	resp_time	valence	s_ns	id
10.100889274588553	3	1	iti	9	4.499	positive	nonsocial	pos_nonsoc_106
13.103201696445467	8	1	message	9	4.499	positive	nonsocial	pos_nonsoc_106
21.119223008019617	5	1	rating	9	4.499	positive	nonsocial	pos_nonsoc_106
26.219522416897235	3	2	iti	10	2.641	negative	nonsocial	neg_nonsoc_216
29.235165119636804	8	2	message	10	2.641	negative	nonsocial	neg_nonsoc_216
37.25126027133956	5	2	rating	10	2.641	negative	nonsocial	neg_nonsoc_216
42.31832107511582	6	3	iti	10	2.175	negative	nonsocial	neg_nonsoc_210
48.33359942387324	8	3	message	10	2.175	negative	nonsocial	neg_nonsoc_210
56.34968944382854	5	3	rating	10	2.175	negative	nonsocial	neg_nonsoc_210
61.44186643889407	6	4	iti	8	1.675	negative	social	neg_soc_404
67.44876806730463	8	4	message	8	1.675	negative	social	neg_soc_404
75.46478766830114	5	4	rating	8	1.675	negative	social	neg_soc_404
80.61190114660712	4	5	iti	6	3.008	positive	nonsocial	pos_nonsoc_103
84.61400972408592	8	5	message	6	3.008	positive	nonsocial	pos_nonsoc_103
92.62998998169496	5	5	rating	6	3.008	positive	nonsocial	pos_nonsoc_103
97.75629479943018	5	6	iti	7	1.175	negative	social	neg_soc_418
102.76252188831859	8	6	message	7	1.175	negative	social	neg_soc_418
110.77855973552505	5	6	rating	7	1.175	negative	social	neg_soc_418
115.89145587068924	6	7	iti	10	4.042	negative	social	neg_soc_416
121.89422587324225	8	7	message	10	4.042	negative	social	neg_soc_416
129.9103315735265	5	7	rating	10	4.042	negative	social	neg_soc_416
135.03009312979702	3	8	iti	4	1.092	positive	social	pos_soc_314
138.04295841745625	8	8	message	4	1.092	positive	social	pos_soc_314
146.05902619984408	5	8	rating	4	1.092	positive	social	pos_soc_314
151.14325354988978	6	9	iti	6	1.025	positive	nonsocial	pos_nonsoc_113
157.15803953610884	8	9	message	6	1.025	positive	nonsocial	pos_nonsoc_113
165.17408451074152	5	9	rating	6	1.025	positive	nonsocial	pos_nonsoc_113
170.25959052087273	4	10	iti	6	0.975	positive	social	pos_soc_318
174.27332164815743	8	10	message	6	0.975	positive	social	pos_soc_318
182.28935978045047	5	10	rating	6	0.975	positive	social	pos_soc_318
187.4051676113886	5	11	iti	4	4.775	positive	social	pos_soc_307
192.42184036962863	8	11	message	4	4.775	positive	social	pos_soc_307
200.4378631066793	5	11	rating	4	4.775	positive	social	pos_soc_307
205.55988206107577	3	12	iti	7	2.808	negative	social	neg_soc_410
208.57045516878134	8	12	message	7	2.808	negative	social	neg_soc_410
216.5865480397042	5	12	rating	7	2.808	negative	social	neg_soc_410
221.67895368256723	2	13	iti	7	1.075	positive	nonsocial	pos_nonsoc_118
223.6859146111674	8	13	message	7	1.075	positive	nonsocial	pos_nonsoc_118
231.70195331366267	5	13	rating	7	1.075	positive	nonsocial	pos_nonsoc_118
236.81990649958607	5	14	iti	6	1.175	positive	social	pos_soc_310
241.83440026137396	8	14	message	6	1.175	positive	social	pos_soc_310
249.8504837241053	5	14	rating	6	1.175	positive	social	pos_soc_310
254.94886328971188	3	15	iti	6	0.658	negative	nonsocial	neg_nonsoc_214
257.9497476606339	8	15	message	6	0.658	negative	nonsocial	neg_nonsoc_214
265.96582998297527	5	15	rating	6	0.658	negative	nonsocial	neg_nonsoc_214
271.0312939583964	4	16	iti	6	0.475	positive	nonsocial	pos_nonsoc_114
275.0317233144888	8	16	message	6	0.475	positive	nonsocial	pos_nonsoc_114
283.04776657852926	5	16	rating	6	0.475	positive	nonsocial	pos_nonsoc_114
288.14001228197594	2	17	iti	6	1.292	negative	nonsocial	neg_nonsoc_211
290.1471314394148	8	17	message	6	1.292	negative	nonsocial	neg_nonsoc_211
298.1631715673866	5	17	rating	6	1.292	negative	nonsocial	neg_nonsoc_211
303.26884819097177	4	18	iti	4	0.641	positive	social	pos_soc_306
307.2791156746971	8	18	message	4	0.641	positive	social	pos_soc_306
315.29511731457023	5	18	rating	4	0.641	positive	social	pos_soc_306
320.4115084539808	4	19	iti	6	0.875	negative	social	neg_soc_420
324.4276763054222	8	19	message	6	0.875	negative	social	neg_soc_420
332.44371073145885	5	19	rating	6	0.875	negative	social	neg_soc_420
337.5545513171819	4	20	iti	6	0.609	negative	social	neg_soc_413
341.5595624673151	8	20	message	6	0.609	negative	social	neg_soc_413
349.57562283719017	5	20	rating	6	0.609	negative	social	neg_soc_413
354.68246037579956	3	21	iti	4	0.841	negative	nonsocial	neg_nonsoc_219
357.6916108494188	8	21	message	4	0.841	negative	nonsocial	neg_nonsoc_219
365.7076729298715	5	21	rating	4	0.841	negative	nonsocial	neg_nonsoc_219
370.82268619543174	6	22	iti	6	0.808	positive	social	pos_soc_311
376.8233404930652	8	22	message	6	0.808	positive	social	pos_soc_311
384.8393737787119	5	22	rating	6	0.808	positive	social	pos_soc_311
389.94014388276264	2	23	iti	4	0.84	positive	nonsocial	pos_nonsoc_117
391.95543477579486	8	23	message	4	0.84	positive	nonsocial	pos_nonsoc_117
399.9715094005078	5	23	rating	4	0.84	positive	nonsocial	pos_nonsoc_117
405.05979881274106	6	24	iti	7	2.225	negative	nonsocial	neg_nonsoc_212
411.0705578037014	8	24	message	7	2.225	negative	nonsocial	neg_nonsoc_212
419.0865950807056	5	24	rating	7	2.225	negative	nonsocial	neg_nonsoc_212
424.16631305134797	4	25	iti	4	0.975	negative	social	neg_soc_419
428.16912040159514	8	25	message	4	0.975	negative	social	neg_soc_419
436.185196166698	5	25	rating	4	0.975	negative	social	neg_soc_419
441.27935943263583	3	26	iti	4	0.708	positive	social	pos_soc_315
444.2844983062387	8	26	message	4	0.708	positive	social	pos_soc_315
452.30053615344514	5	26	rating	4	0.708	positive	social	pos_soc_315
457.3757738245622	4	27	iti	7	1.675	negative	nonsocial	neg_nonsoc_202
461.38309910712996	8	27	message	7	1.675	negative	nonsocial	neg_nonsoc_202
469.399137239423	5	27	rating	7	1.675	negative	nonsocial	neg_nonsoc_202
474.5110343946726	5	28	iti	4	1.241	negative	social	neg_soc_408
479.51497614593245	8	28	message	4	1.241	negative	social	neg_soc_408
487.5311092155316	5	28	rating	4	1.241	negative	social	neg_soc_408
492.63202044260106	4	29	iti	8	3.375	negative	nonsocial	neg_nonsoc_208
496.6468620227388	8	29	message	8	3.375	negative	nonsocial	neg_nonsoc_208
504.66290300601395	5	29	rating	8	3.375	negative	nonsocial	neg_nonsoc_208
509.7468355657329	5	30	iti	7	1.675	positive	nonsocial	pos_nonsoc_102
514.761990752595	8	30	message	7	1.675	positive	nonsocial	pos_nonsoc_102
522.7780782066693	5	30	rating	7	1.675	positive	nonsocial	pos_nonsoc_102
527.8996293168748	2	31	iti	4	0.709	positive	social	pos_soc_304
529.910796851851	8	31	message	4	0.709	positive	social	pos_soc_304
537.9268358394329	5	31	rating	4	0.709	positive	social	pos_soc_304
543.0429977608437	4	32	iti	6	1.475	positive	nonsocial	pos_nonsoc_110
547.0593959706748	8	32	message	6	1.475	positive	nonsocial	pos_nonsoc_110
555.0754229841841	5	32	rating	6	1.475	positive	nonsocial	pos_nonsoc_110
560.1747433699347	2	33	iti	4	0.875	positive	social	pos_soc_319
562.1748160696588	8	33	message	4	0.875	positive	social	pos_soc_319
570.1908573380351	5	33	rating	4	0.875	positive	social	pos_soc_319
575.2643430880271	4	34	iti	6	1.075	positive	nonsocial	pos_nonsoc_116
579.2734068921709	8	34	message	6	1.075	positive	nonsocial	pos_nonsoc_116
587.2894490158214	5	34	rating	6	1.075	positive	nonsocial	pos_nonsoc_116
592.4063256754453	2	35	iti	4	2.475	positive	social	pos_soc_309
594.422165950411	8	35	message	4	2.475	positive	social	pos_soc_309
602.4382015168376	5	35	rating	4	2.475	positive	social	pos_soc_309
607.499791023889	6	36	iti	7	2.008	negative	nonsocial	neg_nonsoc_220
613.5039283516962	8	36	message	7	2.008	negative	nonsocial	neg_nonsoc_220
621.5199667690904	5	36	rating	7	2.008	negative	nonsocial	neg_nonsoc_220
626.6468528996338	6	37	iti	6	0.941	negative	social	neg_soc_411
632.6523350300413	8	37	message	6	0.941	negative	social	neg_soc_411
640.6683794344717	5	37	rating	6	0.941	negative	social	neg_soc_411
645.7950317854702	3	38	iti	4	0.975	negative	social	neg_soc_412
648.8010302265611	8	38	message	4	0.975	negative	social	neg_soc_412
656.8170637972944	5	38	rating	4	0.975	negative	social	neg_soc_412
661.8875856787781	5	39	iti	6	1.142	positive	nonsocial	pos_nonsoc_115
666.8995132823911	8	39	message	6	1.142	positive	nonsocial	pos_nonsoc_115
674.9155813498655	5	39	rating	6	1.142	positive	nonsocial	pos_nonsoc_115
679.9894904689281	5	40	iti	5	1.242	negative	nonsocial	neg_nonsoc_213
684.9980259883014	8	40	message	5	1.242	negative	nonsocial	neg_nonsoc_213
693.0140909197216	5	40	rating	5	1.242	negative	nonsocial	neg_nonsoc_213
