onset	duration	trial	trial_type	rating	resp_time	valence	s_ns	id
10.084254959561804	4	1	iti	4	0.732	positive	social	pos_soc_316
14.100794054451399	8	1	message	4	0.732	positive	social	pos_soc_316
22.1169106343732	5	1	rating	4	0.732	positive	social	pos_soc_316
27.217184670400457	4	2	iti	6	0.742	negative	social	neg_soc_403
31.232826277351705	8	2	message	6	0.742	negative	social	neg_soc_403
39.24888640789868	5	2	rating	6	0.742	negative	social	neg_soc_403
44.37908288592007	6	3	iti	8	1.441	positive	social	pos_soc_302
50.38130009168526	8	3	message	8	1.441	positive	social	pos_soc_302
58.397330001869705	5	3	rating	8	1.441	positive	social	pos_soc_302
63.49034345164546	4	4	iti	8	2.442	negative	nonsocial	neg_nonsoc_203
67.49662045040895	8	4	message	8	2.442	negative	nonsocial	neg_nonsoc_203
75.51268770840397	5	4	rating	8	2.442	negative	nonsocial	neg_nonsoc_203
80.59151412032224	5	5	iti	5.0	0.0	negative	nonsocial	neg_nonsoc_209
85.59518618028233	8	5	message	5.0	0.0	negative	nonsocial	neg_nonsoc_209
93.61129819863709	5	5	rating	5.0	0.0	negative	nonsocial	neg_nonsoc_209
98.7095001436901	4	6	iti	6	2.008	negative	nonsocial	neg_nonsoc_201
102.71049941155798	8	6	message	6	2.008	negative	nonsocial	neg_nonsoc_201
110.72656125269714	5	6	rating	6	2.008	negative	nonsocial	neg_nonsoc_201
115.82002943349653	2	7	iti	6	0.608	positive	social	pos_soc_313
117.82596944663237	8	7	message	6	0.608	positive	social	pos_soc_313
125.84203670463467	5	7	rating	6	0.608	positive	social	pos_soc_313
130.93187102858792	6	8	iti	5.0	0.0	positive	nonsocial	pos_nonsoc_109
136.9411253039143	8	8	message	5.0	0.0	positive	nonsocial	pos_nonsoc_109
144.9571646223194	5	8	rating	5.0	0.0	positive	nonsocial	pos_nonsoc_109
150.05337658456847	4	9	iti	6	4.275	negative	social	neg_soc_417
154.0563735328833	8	9	message	6	4.275	negative	social	neg_soc_417
162.07249438927101	5	9	rating	6	4.275	negative	social	neg_soc_417
167.19137790058448	2	10	iti	7	1.507	negative	social	neg_soc_415
169.20520058341936	8	10	message	7	1.507	negative	social	neg_soc_415
177.2212781049384	5	10	rating	7	1.507	negative	social	neg_soc_415
182.34092567841435	5	11	iti	7	1.342	positive	social	pos_soc_312
187.35379299845226	8	11	message	7	1.342	positive	social	pos_soc_312
195.3698571203713	5	11	rating	7	1.342	positive	social	pos_soc_312
200.46818935513147	6	12	iti	5.0	0.0	positive	social	pos_soc_303
206.46889639773144	8	12	message	5.0	0.0	positive	social	pos_soc_303
214.48501126706105	5	12	rating	5.0	0.0	positive	social	pos_soc_303
219.56793139861838	6	13	iti	7	1.074	positive	nonsocial	pos_nonsoc_111
225.58408304557088	8	13	message	7	1.074	positive	nonsocial	pos_nonsoc_111
233.6001973447128	5	13	rating	7	1.074	positive	nonsocial	pos_nonsoc_111
238.71119562043896	2	14	iti	4	1.675	positive	social	pos_soc_301
240.7162375754342	8	14	message	4	1.675	positive	social	pos_soc_301
248.73228259580355	5	14	rating	4	1.675	positive	social	pos_soc_301
253.82975440532755	3	15	iti	4	0.542	positive	nonsocial	pos_nonsoc_105
256.8316255023383	8	15	message	4	0.542	positive	nonsocial	pos_nonsoc_105
264.8476867732825	5	15	rating	4	0.542	positive	nonsocial	pos_nonsoc_105
270.0029846891048	6	16	iti	5.0	0.0	positive	social	pos_soc_317
276.0134110015788	8	16	message	5.0	0.0	positive	social	pos_soc_317
284.0295002121129	5	16	rating	5.0	0.0	positive	social	pos_soc_317
289.121587379057	3	17	iti	6	0.642	negative	social	neg_soc_414
292.1288337104197	8	17	message	6	0.642	negative	social	neg_soc_414
300.14494401818956	5	17	rating	6	0.642	negative	social	neg_soc_414
305.2441278401384	5	18	iti	8	1.575	negative	social	neg_soc_406
310.2607333628257	8	18	message	8	1.575	negative	social	neg_soc_406
318.2767920678889	5	18	rating	8	1.575	negative	social	neg_soc_406
323.366941424938	2	19	iti	9	3.308	negative	social	neg_soc_409
325.37616319911467	8	19	message	9	3.308	negative	social	neg_soc_409
333.3922632433605	5	19	rating	9	3.308	negative	social	neg_soc_409
338.51796600949456	4	20	iti	6	1.008	negative	social	neg_soc_405
342.52480978272797	8	20	message	6	1.008	negative	social	neg_soc_405
350.540905835609	5	20	rating	6	1.008	negative	social	neg_soc_405
355.6382972475476	5	21	iti	7	0.975	positive	nonsocial	pos_nonsoc_108
360.6400711262031	8	21	message	7	0.975	positive	nonsocial	pos_nonsoc_108
368.65613353753724	5	21	rating	7	0.975	positive	nonsocial	pos_nonsoc_108
373.7559699484045	5	22	iti	6	1.742	positive	nonsocial	pos_nonsoc_119
378.77196792763425	8	22	message	6	1.742	positive	nonsocial	pos_nonsoc_119
386.7880349005354	5	22	rating	6	1.742	positive	nonsocial	pos_nonsoc_119
391.8603733412965	4	23	iti	6	1.042	positive	nonsocial	pos_nonsoc_104
395.87061491038185	8	23	message	6	1.042	positive	nonsocial	pos_nonsoc_104
403.88667960250314	5	23	rating	6	1.042	positive	nonsocial	pos_nonsoc_104
408.9769324500594	3	24	iti	8	1.242	negative	social	neg_soc_402
411.986008824344	8	24	message	8	1.242	negative	social	neg_soc_402
420.0020675294072	5	24	rating	8	1.242	negative	social	neg_soc_402
425.0927790993592	4	25	iti	7	1.708	positive	nonsocial	pos_nonsoc_112
429.10131863444985	8	25	message	7	1.708	positive	nonsocial	pos_nonsoc_112
437.11737905009795	5	25	rating	7	1.708	positive	nonsocial	pos_nonsoc_112
442.18969268735236	6	26	iti	3	1.108	negative	nonsocial	neg_nonsoc_207
448.199760916963	8	26	message	3	1.108	negative	nonsocial	neg_nonsoc_207
456.21586894395296	5	26	rating	3	1.108	negative	nonsocial	neg_nonsoc_207
461.29444133371	6	27	iti	5.0	0.0	positive	nonsocial	pos_nonsoc_107
467.29826392531686	8	27	message	5.0	0.0	positive	nonsocial	pos_nonsoc_107
475.3143588378007	5	27	rating	5.0	0.0	positive	nonsocial	pos_nonsoc_107
480.41017308858864	3	28	iti	5.0	0.0	negative	nonsocial	neg_nonsoc_205
483.413629044393	8	28	message	5.0	0.0	negative	nonsocial	neg_nonsoc_205
491.4297464796109	5	28	rating	5.0	0.0	negative	nonsocial	neg_nonsoc_205
496.56277312371094	3	29	iti	5.0	0.0	negative	nonsocial	neg_nonsoc_218
499.57905620076053	8	29	message	5.0	0.0	negative	nonsocial	neg_nonsoc_218
507.5951334371857	5	29	rating	5.0	0.0	negative	nonsocial	neg_nonsoc_218
512.6815522892211	5	30	iti	4	0.708	negative	nonsocial	neg_nonsoc_206
517.6942491207592	8	30	message	4	0.708	negative	nonsocial	neg_nonsoc_206
525.7103682665547	5	30	rating	4	0.708	negative	nonsocial	neg_nonsoc_206
530.8141852132248	2	31	iti	5.0	0.0	positive	nonsocial	pos_nonsoc_101
532.8264415686281	8	31	message	5.0	0.0	positive	nonsocial	pos_nonsoc_101
540.8425022693773	5	31	rating	5.0	0.0	positive	nonsocial	pos_nonsoc_101
545.9879531914994	5	32	iti	6	0.675	positive	social	pos_soc_305
550.9916654502449	8	32	message	6	0.675	positive	social	pos_soc_305
559.0077267211891	5	32	rating	6	0.675	positive	social	pos_soc_305
564.0895500814222	3	33	iti	5.0	0.0	negative	nonsocial	neg_nonsoc_215
567.0903931156863	8	33	message	5.0	0.0	negative	nonsocial	neg_nonsoc_215
575.1064526760383	5	33	rating	5.0	0.0	negative	nonsocial	neg_nonsoc_215
580.1943169740407	4	34	iti	8	1.307	positive	social	pos_soc_320
584.20567327561	8	34	message	8	1.307	positive	social	pos_soc_320
592.2217485163492	5	34	rating	8	1.307	positive	social	pos_soc_320
597.3118579596994	4	35	iti	5.0	0.0	negative	nonsocial	neg_nonsoc_217
601.3209967704097	8	35	message	5.0	0.0	negative	nonsocial	neg_nonsoc_217
609.3370757174198	5	35	rating	5.0	0.0	negative	nonsocial	neg_nonsoc_217
614.4194575842848	4	36	iti	4	0.909	negative	nonsocial	neg_nonsoc_204
618.4196608590282	8	36	message	4	0.909	negative	nonsocial	neg_nonsoc_204
626.4356725229518	5	36	rating	4	0.909	negative	nonsocial	neg_nonsoc_204
631.5207733677526	6	37	iti	7	2.608	positive	nonsocial	pos_nonsoc_120
637.5347944786772	8	37	message	7	2.608	positive	nonsocial	pos_nonsoc_120
645.5508782723482	5	37	rating	7	2.608	positive	nonsocial	pos_nonsoc_120
650.6461864744997	3	38	iti	6	0.642	negative	social	neg_soc_401
653.6502040730193	8	38	message	6	0.642	negative	social	neg_soc_401
661.6662656290573	5	38	rating	6	0.642	negative	social	neg_soc_401
666.7936895307503	2	39	iti	8	2.608	negative	social	neg_soc_407
668.798949015385	8	39	message	8	2.608	negative	social	neg_soc_407
676.8150687313828	5	39	rating	8	2.608	negative	social	neg_soc_407
681.9213378044224	3	40	iti	6	1.875	positive	social	pos_soc_308
684.9310599252785	8	40	message	6	1.875	positive	social	pos_soc_308
692.9471080817239	5	40	rating	6	1.875	positive	social	pos_soc_308
