onset	duration	trial	trial_type	rating	resp_time	valence	s_ns	id
10.113857885909965	2	1	iti	8	1.266	positive	nonsocial	pos_nonsoc_108
12.129689173176303	8	1	message	8	1.266	positive	nonsocial	pos_nonsoc_108
20.145795296310098	5	1	rating	8	1.266	positive	nonsocial	pos_nonsoc_108
25.219584450445836	3	2	iti	5	2.492	negative	nonsocial	neg_nonsoc_207
28.228509203574504	8	2	message	5	2.492	negative	nonsocial	neg_nonsoc_207
36.244624449900584	5	2	rating	5	2.492	negative	nonsocial	neg_nonsoc_207
41.319889848979074	4	3	iti	6	0.592	positive	social	pos_soc_313
45.32726366110728	8	3	message	6	0.592	positive	social	pos_soc_313
53.343373490541126	5	3	rating	6	0.592	positive	social	pos_soc_313
58.472979699770804	6	4	iti	7	4.242	positive	social	pos_soc_305
64.47586034459528	8	4	message	7	4.242	positive	social	pos_soc_305
72.49193909819587	5	4	rating	7	4.242	positive	social	pos_soc_305
77.61100518082094	3	5	iti	6	0.741	negative	social	neg_soc_415
80.62464348314097	8	5	message	6	0.741	negative	social	neg_soc_415
88.64079864337691	5	5	rating	6	0.741	negative	social	neg_soc_415
93.74031944823219	4	6	iti	8	2.976	negative	nonsocial	neg_nonsoc_201
97.75676540991117	8	6	message	8	2.976	negative	nonsocial	neg_nonsoc_201
105.77287495422934	5	6	rating	8	2.976	negative	nonsocial	neg_nonsoc_201
110.9068132495886	2	7	iti	7	0.842	negative	nonsocial	neg_nonsoc_218
112.92232208939095	8	7	message	7	0.842	negative	nonsocial	neg_nonsoc_218
120.9384344847058	5	7	rating	7	0.842	negative	nonsocial	neg_nonsoc_218
126.01949795127439	6	8	iti	6	0.675	positive	social	pos_soc_316
132.02092972070386	8	8	message	6	0.675	positive	social	pos_soc_316
140.03704154583102	5	8	rating	6	0.675	positive	social	pos_soc_316
145.1145190315292	6	9	iti	7	2.808	positive	nonsocial	pos_nonsoc_107
151.11953421591897	8	9	message	7	2.808	positive	nonsocial	pos_nonsoc_107
159.13563834335946	5	9	rating	7	2.808	positive	nonsocial	pos_nonsoc_107
164.21650822740048	6	10	iti	5	2.408	positive	nonsocial	pos_nonsoc_111
170.21812189026969	8	10	message	5	2.408	positive	nonsocial	pos_nonsoc_111
178.234247400178	5	10	rating	5	2.408	positive	nonsocial	pos_nonsoc_111
183.33204135765845	5	11	iti	7	3.525	positive	nonsocial	pos_nonsoc_105
188.33347825887904	8	11	message	7	3.525	positive	nonsocial	pos_nonsoc_105
196.3495912244107	5	11	rating	7	3.525	positive	nonsocial	pos_nonsoc_105
201.4254866932606	4	12	iti	7	0.808	negative	social	neg_soc_414
205.43220107037632	8	12	message	7	0.808	negative	social	neg_soc_414
213.44833741405455	5	12	rating	7	0.808	negative	social	neg_soc_414
218.5398566177755	5	13	iti	6	0.509	negative	social	neg_soc_402
223.5475597197801	8	13	message	6	0.509	negative	social	neg_soc_402
231.5636906465661	5	13	rating	6	0.509	negative	social	neg_soc_402
236.71953455804032	3	14	iti	7	3.307	positive	social	pos_soc_317
239.72971973582753	8	14	message	7	3.307	positive	social	pos_soc_317
247.74583156095468	5	14	rating	7	3.307	positive	social	pos_soc_317
252.81671498151263	2	15	iti	6	0.425	positive	nonsocial	pos_nonsoc_104
254.82861702819355	8	15	message	6	0.425	positive	nonsocial	pos_nonsoc_104
262.84473198940395	5	15	rating	6	0.425	positive	nonsocial	pos_nonsoc_104
267.9154814132198	3	16	iti	7	0.841	positive	social	pos_soc_320
270.9274416201806	8	16	message	7	0.841	positive	social	pos_soc_320
278.9435525900044	5	16	rating	7	0.841	positive	social	pos_soc_320
284.0439532117598	3	17	iti	9	1.441	positive	nonsocial	pos_nonsoc_119
287.05959576318855	8	17	message	9	1.441	positive	nonsocial	pos_nonsoc_119
295.07570986911014	5	17	rating	9	1.441	positive	nonsocial	pos_nonsoc_119
300.16363738999644	2	18	iti	5.0	0.0	positive	nonsocial	pos_nonsoc_109
302.1751000984077	8	18	message	5.0	0.0	positive	nonsocial	pos_nonsoc_109
310.1912717944215	5	18	rating	5.0	0.0	positive	nonsocial	pos_nonsoc_109
315.2801056464523	4	19	iti	8	1.873	negative	social	neg_soc_409
319.2905733577936	8	19	message	8	1.873	negative	social	neg_soc_409
327.30668660841184	5	19	rating	8	1.873	negative	social	neg_soc_409
332.396225796474	5	20	iti	9	2.208	positive	nonsocial	pos_nonsoc_112
337.4059180373297	8	20	message	9	2.208	positive	nonsocial	pos_nonsoc_112
345.4220224498713	5	20	rating	9	2.208	positive	nonsocial	pos_nonsoc_112
350.508301525726	5	21	iti	6	1.107	negative	nonsocial	neg_nonsoc_206
355.5212572999735	8	21	message	6	1.107	negative	nonsocial	neg_nonsoc_206
363.53737283138616	5	21	rating	6	1.107	negative	nonsocial	neg_nonsoc_206
368.664067034857	5	22	iti	7	3.874	negative	social	neg_soc_405
373.66992981990916	8	22	message	7	3.874	negative	social	neg_soc_405
381.68604421093187	5	22	rating	7	3.874	negative	social	neg_soc_405
386.7560369808198	6	23	iti	6	2.307	negative	nonsocial	neg_nonsoc_204
392.7685300386365	8	23	message	6	2.307	negative	nonsocial	neg_nonsoc_204
400.7847108578426	5	23	rating	6	2.307	negative	nonsocial	neg_nonsoc_204
405.8968778189155	4	24	iti	4	0.542	positive	social	pos_soc_301
409.90061575778236	8	24	message	4	0.542	positive	social	pos_soc_301
417.91672672760615	5	24	rating	4	0.542	positive	social	pos_soc_301
423.0145064301323	6	25	iti	7	2.006	negative	social	neg_soc_406
429.0158854561596	8	25	message	7	2.006	negative	social	neg_soc_406
437.0319639246445	5	25	rating	7	2.006	negative	social	neg_soc_406
442.12840907664213	3	26	iti	7	1.392	positive	social	pos_soc_303
445.1313726854132	8	26	message	7	1.392	positive	social	pos_soc_303
453.14750503770483	5	26	rating	7	1.392	positive	social	pos_soc_303
458.2248915766686	6	27	iti	6	0.675	negative	social	neg_soc_401
464.22997375944396	8	27	message	6	0.675	negative	social	neg_soc_401
472.24606904880784	5	27	rating	6	0.675	negative	social	neg_soc_401
477.34037424433336	5	28	iti	4	4.875	negative	social	neg_soc_417
482.3452984820178	8	28	message	4	4.875	negative	social	neg_soc_417
490.3613926309772	5	28	rating	4	4.875	negative	social	neg_soc_417
495.48177216676413	4	29	iti	8	1.475	positive	social	pos_soc_312
499.4940639443812	8	29	message	8	1.475	positive	social	pos_soc_312
507.5101732036128	5	29	rating	8	1.475	positive	social	pos_soc_312
512.5955180085875	2	30	iti	7	2.608	positive	nonsocial	pos_nonsoc_120
514.6096292908915	8	30	message	7	2.608	positive	nonsocial	pos_nonsoc_120
522.6257399756141	5	30	rating	7	2.608	positive	nonsocial	pos_nonsoc_120
527.7510406129877	4	31	iti	6	4.142	positive	social	pos_soc_302
531.7583351674693	8	31	message	6	4.142	positive	social	pos_soc_302
539.7744643836631	5	31	rating	6	4.142	positive	social	pos_soc_302
544.8553585011541	4	32	iti	7	1.374	negative	nonsocial	neg_nonsoc_215
548.8571175647376	8	32	message	7	1.374	negative	nonsocial	neg_nonsoc_215
556.8732285345759	5	32	rating	7	1.374	negative	nonsocial	neg_nonsoc_215
562.001680091038	6	33	iti	7	0.908	negative	social	neg_soc_407
568.0057156737312	8	33	message	7	0.908	negative	social	neg_soc_407
576.0218260733673	5	33	rating	7	0.908	negative	social	neg_soc_407
581.1137250295578	2	34	iti	8	2.608	negative	nonsocial	neg_nonsoc_217
583.1212807351403	8	34	message	8	2.608	negative	nonsocial	neg_nonsoc_217
591.1373956963653	5	34	rating	8	2.608	negative	nonsocial	neg_nonsoc_217
596.2466945569904	4	35	iti	8	4.34	positive	nonsocial	pos_nonsoc_101
600.2533305317484	8	35	message	8	4.34	positive	nonsocial	pos_nonsoc_101
608.2694714370155	5	35	rating	8	4.34	positive	nonsocial	pos_nonsoc_101
613.3756458927965	5	36	iti	6	0.607	positive	social	pos_soc_308
618.3853860303498	8	36	message	6	0.607	positive	social	pos_soc_308
626.401502987268	5	36	rating	6	0.607	positive	social	pos_soc_308
631.4807076054276	4	37	iti	8	4.442	negative	nonsocial	neg_nonsoc_205
635.4840917358815	8	37	message	8	4.442	negative	nonsocial	neg_nonsoc_205
643.5002178159775	5	37	rating	8	4.442	negative	nonsocial	neg_nonsoc_205
648.5737167388725	3	38	iti	6	0.673	negative	nonsocial	neg_nonsoc_209
651.5829719222675	8	38	message	6	0.673	negative	nonsocial	neg_nonsoc_209
659.5990888791712	5	38	rating	6	0.673	negative	nonsocial	neg_nonsoc_209
664.6959608250472	4	39	iti	7	4.539	negative	social	neg_soc_403
668.6983220186812	8	39	message	7	4.539	negative	social	neg_soc_403
676.7144820256217	5	39	rating	7	4.539	negative	social	neg_soc_403
681.8067068504752	3	40	iti	8	1.942	negative	nonsocial	neg_nonsoc_203
684.813857144647	8	40	message	8	1.942	negative	nonsocial	neg_nonsoc_203
692.829919932672	5	40	rating	8	1.942	negative	nonsocial	neg_nonsoc_203
