onset	duration	trial	trial_type	rating	resp_time	valence	s_ns	id
10.042661535623665	6	1	iti	8	1.447	negative	nonsocial	neg_nonsoc_209
16.04555273654819	8	1	message	8	1.447	negative	nonsocial	neg_nonsoc_209
24.061676577224034	5	1	rating	8	1.447	negative	nonsocial	neg_nonsoc_209
29.09446879991924	2	2	iti	7	2.021	positive	nonsocial	pos_nonsoc_105
31.094484480429173	8	2	message	7	2.021	positive	nonsocial	pos_nonsoc_105
39.110575534584086	5	2	rating	7	2.021	positive	nonsocial	pos_nonsoc_105
44.14471884703198	5	3	iti	6	0.404	positive	social	pos_soc_308
49.159865934491336	8	3	message	6	0.404	positive	social	pos_soc_308
57.17600089407415	5	3	rating	6	0.404	positive	social	pos_soc_308
62.20864686037703	2	4	iti	8	1.687	negative	nonsocial	neg_nonsoc_201
64.2088036654759	8	4	message	8	1.687	negative	nonsocial	neg_nonsoc_201
72.2249323528547	5	4	rating	8	1.687	negative	nonsocial	neg_nonsoc_201
77.25388085492409	5	5	iti	6	0.437	positive	nonsocial	pos_nonsoc_111
82.25752329482293	8	5	message	6	0.437	positive	nonsocial	pos_nonsoc_111
90.27364570999771	5	5	rating	6	0.437	positive	nonsocial	pos_nonsoc_111
95.30312706430345	3	6	iti	6	0.753	negative	nonsocial	neg_nonsoc_206
98.30638347855847	8	6	message	6	0.753	negative	nonsocial	neg_nonsoc_206
106.32252841664763	5	6	rating	6	0.753	negative	nonsocial	neg_nonsoc_206
111.3549038228798	6	7	iti	7	1.237	positive	nonsocial	pos_nonsoc_119
117.35505948757805	8	7	message	7	1.237	positive	nonsocial	pos_nonsoc_119
125.37116166064015	5	7	rating	7	1.237	positive	nonsocial	pos_nonsoc_119
130.4001500767347	4	8	iti	8	1.637	negative	nonsocial	neg_nonsoc_217
134.40381874585	8	8	message	8	1.637	negative	nonsocial	neg_nonsoc_217
142.41995256503196	5	8	rating	8	1.637	negative	nonsocial	neg_nonsoc_217
147.45270544390246	3	9	iti	6	0.87	positive	nonsocial	pos_nonsoc_108
150.4693264992918	8	9	message	6	0.87	positive	nonsocial	pos_nonsoc_108
158.4854369402592	5	9	rating	6	0.87	positive	nonsocial	pos_nonsoc_108
163.52173275906557	3	10	iti	6	0.569	negative	social	neg_soc_407
166.53487787306153	8	10	message	6	0.569	negative	social	neg_soc_407
174.551033359857	5	10	rating	6	0.569	negative	social	neg_soc_407
179.58137286570422	3	11	iti	7	1.27	negative	nonsocial	neg_nonsoc_203
182.5837448992013	8	11	message	7	1.27	negative	nonsocial	neg_nonsoc_203
190.5998430808611	5	11	rating	7	1.27	negative	nonsocial	neg_nonsoc_203
195.63002435610838	4	12	iti	6	0.787	negative	social	neg_soc_403
199.63253209729078	8	12	message	6	0.787	negative	social	neg_soc_403
207.64871153250192	5	12	rating	6	0.787	negative	social	neg_soc_403
212.6822464411655	6	13	iti	3	1.786	positive	social	pos_soc_301
218.69783942530626	8	13	message	3	1.786	positive	social	pos_soc_301
226.71400660120958	5	13	rating	3	1.786	positive	social	pos_soc_301
231.75494755724753	3	14	iti	6	0.77	positive	social	pos_soc_317
234.76336998676265	8	14	message	6	0.77	positive	social	pos_soc_317
242.7795174907535	5	14	rating	6	0.77	positive	social	pos_soc_317
247.81422758235908	5	15	iti	7	1.104	positive	social	pos_soc_303
252.8287953462525	8	15	message	7	1.104	positive	social	pos_soc_303
260.8448781325026	5	15	rating	7	1.104	positive	social	pos_soc_303
265.87498385620233	4	16	iti	6	0.854	positive	nonsocial	pos_nonsoc_112
269.8775469068198	8	16	message	6	0.854	positive	nonsocial	pos_nonsoc_112
277.8936248463667	5	16	rating	6	0.854	positive	nonsocial	pos_nonsoc_112
282.9233568037305	4	17	iti	6	1.154	positive	social	pos_soc_313
286.92636860203106	8	17	message	6	1.154	positive	social	pos_soc_313
294.942459085986	5	17	rating	6	1.154	positive	social	pos_soc_313
299.97780694669405	5	18	iti	6	0.453	positive	social	pos_soc_302
304.99171669937255	8	18	message	6	0.453	positive	social	pos_soc_302
313.0078969898839	5	18	rating	6	0.453	positive	social	pos_soc_302
318.03339178837336	4	19	iti	7	1.62	negative	nonsocial	neg_nonsoc_207
322.0405315521796	8	19	message	7	1.62	negative	nonsocial	neg_nonsoc_207
330.0566063556241	5	19	rating	7	1.62	negative	nonsocial	neg_nonsoc_207
335.08594259393817	4	20	iti	6	0.637	negative	social	neg_soc_401
339.0892697130382	8	20	message	6	0.637	negative	social	neg_soc_401
347.10540495772125	5	20	rating	6	0.637	negative	social	neg_soc_401
352.1331024402009	6	21	iti	8	1.887	negative	nonsocial	neg_nonsoc_215
358.1379576962652	8	21	message	8	1.887	negative	nonsocial	neg_nonsoc_215
366.1540729839355	5	21	rating	8	1.887	negative	nonsocial	neg_nonsoc_215
371.19351174712506	5	22	iti	6	0.453	positive	social	pos_soc_305
376.2033086446079	8	22	message	6	0.453	positive	social	pos_soc_305
384.21946612710485	5	22	rating	6	0.453	positive	social	pos_soc_305
389.2461820096653	5	23	iti	4	0.554	positive	nonsocial	pos_nonsoc_107
394.2520396779621	8	23	message	4	0.554	positive	nonsocial	pos_nonsoc_107
402.2681501189297	5	23	rating	4	0.554	positive	nonsocial	pos_nonsoc_107
407.29751885866403	3	24	iti	6	0.652	positive	nonsocial	pos_nonsoc_120
410.30089672559575	8	24	message	6	0.652	positive	nonsocial	pos_nonsoc_120
418.3170091622644	5	24	rating	6	0.652	positive	nonsocial	pos_nonsoc_120
423.3473267153979	4	25	iti	6	0.537	negative	social	neg_soc_406
427.3496890554886	8	25	message	6	0.537	negative	social	neg_soc_406
435.36580918986215	5	25	rating	6	0.537	negative	social	neg_soc_406
440.3947984612571	6	26	iti	6	0.686	negative	social	neg_soc_414
446.39832999718624	8	26	message	6	0.686	negative	social	neg_soc_414
454.4144643865686	5	26	rating	6	0.686	negative	social	neg_soc_414
459.440910849459	2	27	iti	7	2.187	negative	nonsocial	neg_nonsoc_204
461.44725660926383	8	27	message	7	2.187	negative	nonsocial	neg_nonsoc_204
469.4634203639646	5	27	rating	7	2.187	negative	nonsocial	neg_nonsoc_204
474.4964181438893	5	28	iti	4	0.737	negative	social	neg_soc_415
479.5126469014315	8	28	message	4	0.737	negative	social	neg_soc_415
487.5287867077175	5	28	rating	4	0.737	negative	social	neg_soc_415
492.5570412759487	3	29	iti	6	0.57	positive	social	pos_soc_320
495.56150138316366	8	29	message	6	0.57	positive	social	pos_soc_320
503.5776300705422	5	29	rating	6	0.57	positive	social	pos_soc_320
508.6087960818111	4	30	iti	6	0.737	positive	nonsocial	pos_nonsoc_101
512.6103108190671	8	30	message	6	0.737	positive	nonsocial	pos_nonsoc_101
520.626436085244	5	30	rating	6	0.737	positive	nonsocial	pos_nonsoc_101
525.6554535815569	2	31	iti	3	1.12	negative	social	neg_soc_402
527.6592511159531	8	31	message	3	1.12	negative	social	neg_soc_402
535.6753487274125	5	31	rating	3	1.12	negative	social	neg_soc_402
540.7129246460265	4	32	iti	8	2.037	negative	nonsocial	neg_nonsoc_218
544.7246511015271	8	32	message	8	2.037	negative	nonsocial	neg_nonsoc_218
552.7408154264288	5	32	rating	8	2.037	negative	nonsocial	neg_nonsoc_218
557.77593093049	6	33	iti	7	1.403	negative	social	neg_soc_405
563.7899903607629	8	33	message	7	1.403	negative	social	neg_soc_405
571.8061104951364	5	33	rating	7	1.403	negative	social	neg_soc_405
576.8346404701417	4	34	iti	6	0.47	negative	social	neg_soc_409
580.8388106304735	8	34	message	6	0.47	negative	social	neg_soc_409
588.8548851488179	5	34	rating	6	0.47	negative	social	neg_soc_409
593.8893149869466	4	35	iti	4	0.802	positive	social	pos_soc_312
597.9042114713477	8	35	message	4	0.802	positive	social	pos_soc_312
605.9204273993817	5	35	rating	4	0.802	positive	social	pos_soc_312
610.949776467204	6	36	iti	7	1.27	negative	social	neg_soc_417
616.9528686637552	8	36	message	7	1.27	negative	social	neg_soc_417
624.9690173081469	5	36	rating	7	1.27	negative	social	neg_soc_417
629.9975441470499	2	37	iti	7	1.42	positive	nonsocial	pos_nonsoc_109
632.0018346196578	8	37	message	7	1.42	positive	nonsocial	pos_nonsoc_109
640.0179370778199	5	37	rating	7	1.42	positive	nonsocial	pos_nonsoc_109
645.0475330423981	3	38	iti	7	0.903	negative	nonsocial	neg_nonsoc_205
648.0506888162897	8	38	message	7	0.903	negative	nonsocial	neg_nonsoc_205
656.066830903377	5	38	rating	7	0.903	negative	nonsocial	neg_nonsoc_205
661.0958264469762	6	39	iti	6	0.853	positive	social	pos_soc_316
667.0992884184609	8	39	message	6	0.853	positive	social	pos_soc_316
675.1154399138543	5	39	rating	6	0.853	positive	social	pos_soc_316
680.1412394844363	2	40	iti	6	0.604	positive	nonsocial	pos_nonsoc_104
682.148230140848	8	40	message	6	0.604	positive	nonsocial	pos_nonsoc_104
690.1643716577348	5	40	rating	6	0.604	positive	nonsocial	pos_nonsoc_104
