onset	duration	trial	trial_type	rating	resp_time	valence	s_ns	id
10.136976682326349	4	1	iti	8	4.732	positive	social	pos_soc_304
14.145158922190603	8	1	message	8	4.732	positive	social	pos_soc_304
22.161158194627205	5	1	rating	8	4.732	positive	social	pos_soc_304
27.24023940036568	3	2	iti	10	2.225	positive	nonsocial	pos_nonsoc_116
30.243761184650793	8	2	message	10	2.225	positive	nonsocial	pos_nonsoc_116
38.2597653037119	5	2	rating	10	2.225	positive	nonsocial	pos_nonsoc_116
43.36090349033839	4	3	iti	10	2.175	negative	social	neg_soc_420
47.37561299088702	8	3	message	10	2.175	negative	social	neg_soc_420
55.39161625465931	5	3	rating	10	2.175	negative	social	neg_soc_420
60.525387893761945	5	4	iti	9	2.808	positive	social	pos_soc_306
65.54070835389575	8	4	message	9	2.808	positive	social	pos_soc_306
73.55670620085584	5	4	rating	9	2.808	positive	social	pos_soc_306
78.65215388198703	2	5	iti	10	2.142	positive	nonsocial	pos_nonsoc_106
80.6560636812028	8	5	message	10	2.142	positive	nonsocial	pos_nonsoc_106
88.67206865554908	5	5	rating	10	2.142	positive	nonsocial	pos_nonsoc_106
93.7921636949759	4	6	iti	7	2.009	positive	social	pos_soc_310
97.8045818832652	8	6	message	7	2.009	positive	social	pos_soc_310
105.82058486194364	5	6	rating	7	2.009	positive	social	pos_soc_310
110.92870532162124	3	7	iti	6	0.808	negative	nonsocial	neg_nonsoc_219
113.93651779266656	8	7	message	6	0.808	negative	nonsocial	neg_nonsoc_219
121.9525230521067	5	7	rating	6	0.808	negative	nonsocial	neg_nonsoc_219
127.02762518043164	6	8	iti	8	1.275	negative	nonsocial	neg_nonsoc_202
133.03486346920545	8	8	message	8	1.275	negative	nonsocial	neg_nonsoc_202
141.0509117780639	5	8	rating	8	1.275	negative	nonsocial	neg_nonsoc_202
146.13499042221883	5	9	iti	9	1.675	positive	nonsocial	pos_nonsoc_102
151.14995679378262	8	9	message	9	1.675	positive	nonsocial	pos_nonsoc_102
159.16596290851157	5	9	rating	9	1.675	positive	nonsocial	pos_nonsoc_102
164.2685773194571	5	10	iti	8	1.542	negative	nonsocial	neg_nonsoc_208
169.281717654565	8	10	message	8	1.542	negative	nonsocial	neg_nonsoc_208
177.29772633515313	5	10	rating	8	1.542	negative	nonsocial	neg_nonsoc_208
182.39492307696855	4	11	iti	7	0.942	negative	nonsocial	neg_nonsoc_214
186.39690762650207	8	11	message	7	0.942	negative	nonsocial	neg_nonsoc_214
194.41290946479785	5	11	rating	7	0.942	negative	nonsocial	neg_nonsoc_214
199.50435868202476	3	12	iti	7	1.174	negative	nonsocial	neg_nonsoc_211
202.51215746848902	8	12	message	7	1.174	negative	nonsocial	neg_nonsoc_211
210.5281766976077	5	12	rating	7	1.174	negative	nonsocial	neg_nonsoc_211
215.64784352364222	2	13	iti	8	1.975	positive	social	pos_soc_314
217.66086668451317	8	13	message	8	1.975	positive	social	pos_soc_314
225.6768679526176	5	13	rating	8	1.975	positive	social	pos_soc_314
230.7999436651371	4	14	iti	7	1.508	negative	social	neg_soc_410
234.8093751933302	8	14	message	7	1.508	negative	social	neg_soc_410
242.82538016767649	5	14	rating	7	1.508	negative	social	neg_soc_410
247.88699614009238	3	15	iti	6	0.541	negative	nonsocial	neg_nonsoc_220
250.89131733206523	8	15	message	6	0.541	negative	nonsocial	neg_nonsoc_220
258.90732202131403	5	15	rating	6	0.541	negative	nonsocial	neg_nonsoc_220
264.01979731423125	2	16	iti	7	4.841	negative	social	neg_soc_408
266.0233401955811	8	16	message	7	4.841	negative	social	neg_soc_408
274.0393403233029	5	16	rating	7	4.841	negative	social	neg_soc_408
279.15586853335844	2	17	iti	6	1.706	positive	nonsocial	pos_nonsoc_110
281.17202346791964	8	17	message	6	1.706	positive	nonsocial	pos_nonsoc_110
289.1880278720746	5	17	rating	6	1.706	positive	nonsocial	pos_nonsoc_110
294.2942036955792	6	18	iti	9	2.241	negative	social	neg_soc_413
300.30370051063437	8	18	message	9	2.241	negative	social	neg_soc_413
308.3197297180959	5	18	rating	9	2.241	negative	social	neg_soc_413
313.4324248196135	4	19	iti	9	2.008	negative	social	neg_soc_416
317.4355828220869	8	19	message	9	2.008	negative	social	neg_soc_416
325.451549023448	5	19	rating	9	2.008	negative	social	neg_soc_416
330.5711445756169	3	20	iti	8	3.373	positive	social	pos_soc_307
333.58410444529363	8	20	message	8	3.373	positive	social	pos_soc_307
341.60014505657455	5	20	rating	8	3.373	positive	social	pos_soc_307
346.70420404624747	6	21	iti	7	1.908	positive	nonsocial	pos_nonsoc_117
352.71579602787824	8	21	message	7	1.908	positive	nonsocial	pos_nonsoc_117
360.7318252353398	5	21	rating	7	1.908	positive	nonsocial	pos_nonsoc_117
365.8244011498464	4	22	iti	7	1.008	positive	nonsocial	pos_nonsoc_118
369.830949792693	8	22	message	7	1.008	positive	nonsocial	pos_nonsoc_118
377.8470100755585	5	22	rating	7	1.008	positive	nonsocial	pos_nonsoc_118
382.91773342262604	6	23	iti	8	1.408	positive	nonsocial	pos_nonsoc_115
388.9293407994119	8	23	message	8	1.408	positive	nonsocial	pos_nonsoc_115
396.94534349299647	5	23	rating	8	1.408	positive	nonsocial	pos_nonsoc_115
402.07215538158925	6	24	iti	8	4.041	negative	social	neg_soc_412
408.0776825273824	8	24	message	8	4.041	negative	social	neg_soc_412
416.09368636134604	5	24	rating	8	4.041	negative	social	neg_soc_412
421.190585463497	6	25	iti	9	2.342	negative	social	neg_soc_419
427.19268633198226	8	25	message	9	2.342	negative	social	neg_soc_419
435.2086867448015	5	25	rating	9	2.342	negative	social	neg_soc_419
440.29881140849466	2	26	iti	7	0.942	negative	social	neg_soc_404
442.308016285795	8	26	message	7	0.942	negative	social	neg_soc_404
450.324023540903	5	26	rating	7	0.942	negative	social	neg_soc_404
455.4637915929343	4	27	iti	10	3.308	positive	nonsocial	pos_nonsoc_103
459.47319803272694	8	27	message	10	3.308	positive	nonsocial	pos_nonsoc_103
467.48918048453197	5	27	rating	10	3.308	positive	nonsocial	pos_nonsoc_103
472.58844559394856	4	28	iti	8	1.808	positive	nonsocial	pos_nonsoc_113
476.6050638086417	8	28	message	8	1.808	positive	nonsocial	pos_nonsoc_113
484.621060800313	5	28	rating	8	1.808	positive	nonsocial	pos_nonsoc_113
489.73646915537756	3	29	iti	7	0.842	positive	social	pos_soc_311
492.73696065996046	8	29	message	7	0.842	positive	social	pos_soc_311
500.75299499914036	5	29	rating	7	0.842	positive	social	pos_soc_311
505.8274499607578	5	30	iti	8	1.275	negative	nonsocial	neg_nonsoc_213
510.8354237958338	8	30	message	8	1.275	negative	nonsocial	neg_nonsoc_213
518.8514213577	5	30	rating	8	1.275	negative	nonsocial	neg_nonsoc_213
523.9170015825657	5	31	iti	10	1.741	negative	nonsocial	neg_nonsoc_210
528.9171897455708	8	31	message	10	1.741	negative	nonsocial	neg_nonsoc_210
536.9331824608125	5	31	rating	10	1.741	negative	nonsocial	neg_nonsoc_210
542.030703356173	4	32	iti	8	1.542	positive	social	pos_soc_318
546.0323671733095	8	32	message	8	1.542	positive	social	pos_soc_318
554.0483615991216	5	32	rating	8	1.542	positive	social	pos_soc_318
559.1409358030578	5	33	iti	9	1.675	positive	social	pos_soc_315
564.1474165931832	8	33	message	9	1.675	positive	social	pos_soc_315
572.1634583448431	5	33	rating	9	1.675	positive	social	pos_soc_315
577.2560830106777	5	34	iti	10	2.041	positive	social	pos_soc_319
582.2625475503592	8	34	message	10	2.041	positive	social	pos_soc_319
590.2785448271279	5	34	rating	10	2.041	positive	social	pos_soc_319
595.3867157487039	4	35	iti	7	1.008	negative	nonsocial	neg_nonsoc_216
599.3943919441153	8	35	message	7	1.008	negative	nonsocial	neg_nonsoc_216
607.4103929271223	5	35	rating	7	1.008	negative	nonsocial	neg_nonsoc_216
612.5288044778245	3	36	iti	6	0.608	positive	social	pos_soc_309
615.5429848411877	8	36	message	6	0.608	positive	social	pos_soc_309
623.5589883900575	5	36	rating	6	0.608	positive	social	pos_soc_309
628.6417242345669	3	37	iti	9	1.575	positive	nonsocial	pos_nonsoc_114
631.6582563504307	8	37	message	9	1.575	positive	nonsocial	pos_nonsoc_114
639.6742581887265	5	37	rating	9	1.575	positive	nonsocial	pos_nonsoc_114
644.8014073452578	6	38	iti	10	2.174	negative	social	neg_soc_411
650.8065923764916	8	38	message	10	2.174	negative	social	neg_soc_411
658.8225773941522	5	38	rating	10	2.174	negative	social	neg_soc_411
663.9475116440117	6	39	iti	8	1.341	negative	social	neg_soc_418
669.9549192794948	8	39	message	8	1.341	negative	social	neg_soc_418
677.9708638136035	5	39	rating	8	1.341	negative	social	neg_soc_418
683.0550228546781	2	40	iti	8	1.208	negative	nonsocial	neg_nonsoc_212
685.070276032282	8	40	message	8	1.208	negative	nonsocial	neg_nonsoc_212
693.0862790109568	5	40	rating	8	1.208	negative	nonsocial	neg_nonsoc_212
