onset	duration	trial	trial_type	rating	resp_time	valence	s_ns	id
10.096637318609282	3	1	iti	8	2.401	positive	nonsocial	pos_nonsoc_113
13.103914746374357	8	1	message	8	2.401	positive	nonsocial	pos_nonsoc_113
21.119964659155812	5	1	rating	8	2.401	positive	nonsocial	pos_nonsoc_113
26.207800697826315	3	2	iti	9	2.825	positive	nonsocial	pos_nonsoc_114
29.21931839757599	8	2	message	9	2.825	positive	nonsocial	pos_nonsoc_114
37.23537999938708	5	2	rating	9	2.825	positive	nonsocial	pos_nonsoc_114
42.326725317165256	5	3	iti	9	1.761	positive	social	pos_soc_310
47.33462197915651	8	3	message	9	1.761	positive	social	pos_soc_310
55.350708099489566	5	3	rating	9	1.761	positive	social	pos_soc_310
60.445114521251526	3	4	iti	8	3.861	positive	social	pos_soc_304
63.4500638335594	8	4	message	8	3.861	positive	social	pos_soc_304
71.46613341820193	5	4	rating	8	3.861	positive	social	pos_soc_304
76.5640981560573	2	5	iti	9	2.227	positive	social	pos_soc_306
78.56558209442301	8	5	message	9	2.227	positive	social	pos_soc_306
86.58165880647721	5	5	rating	9	2.227	positive	social	pos_soc_306
91.67110251635313	2	6	iti	5.0	0.0	negative	social	neg_soc_420
93.68108923645923	8	6	message	5.0	0.0	negative	social	neg_soc_420
101.69716395280557	5	6	rating	5.0	0.0	negative	social	neg_soc_420
106.77421356964624	5	7	iti	9	2.06	negative	nonsocial	neg_nonsoc_208
111.7797248113784	8	7	message	9	2.06	negative	nonsocial	neg_nonsoc_208
119.79580180853372	5	7	rating	9	2.06	negative	nonsocial	neg_nonsoc_208
124.89093979343306	3	8	iti	9	4.227	negative	social	neg_soc_410
127.89515896816738	8	8	message	9	4.227	negative	social	neg_soc_410
135.9112408119836	5	8	rating	9	4.227	negative	social	neg_soc_410
140.98522447812138	4	9	iti	10	2.693	positive	nonsocial	pos_nonsoc_117
144.99385355849518	8	9	message	10	2.693	positive	nonsocial	pos_nonsoc_117
153.00997075455962	5	9	rating	10	2.693	positive	nonsocial	pos_nonsoc_117
158.08185837551719	6	10	iti	9	2.794	negative	social	neg_soc_419
164.0924010379822	8	10	message	9	2.794	negative	social	neg_soc_419
172.10845351667376	5	10	rating	9	2.794	negative	social	neg_soc_419
177.17599224305013	5	11	iti	9	2.162	negative	nonsocial	neg_nonsoc_211
182.19102378346724	8	11	message	9	2.162	negative	nonsocial	neg_nonsoc_211
190.20710676774615	5	11	rating	9	2.162	negative	nonsocial	neg_nonsoc_211
195.26936945872148	4	12	iti	9	2.527	negative	nonsocial	neg_nonsoc_212
199.27305435860762	8	12	message	9	2.527	negative	nonsocial	neg_nonsoc_212
207.28913905343506	5	12	rating	9	2.527	negative	nonsocial	neg_nonsoc_212
212.4011617199285	4	13	iti	8	4.094	positive	nonsocial	pos_nonsoc_103
216.40508581756148	8	13	message	8	4.094	positive	nonsocial	pos_nonsoc_103
224.42116481036646	5	13	rating	8	4.094	positive	nonsocial	pos_nonsoc_103
229.48971791769145	6	14	iti	9	1.961	positive	social	pos_soc_315
235.50362788012717	8	14	message	9	1.961	positive	social	pos_soc_315
243.51971086434787	5	14	rating	9	1.961	positive	social	pos_soc_315
248.56921482126927	4	15	iti	10	4.794	positive	nonsocial	pos_nonsoc_115
252.5856553191552	8	15	message	10	4.794	positive	nonsocial	pos_nonsoc_115
260.60174771165475	5	15	rating	10	4.794	positive	nonsocial	pos_nonsoc_115
265.6429915057961	6	16	iti	9	3.261	negative	nonsocial	neg_nonsoc_220
271.650872487342	8	16	message	9	3.261	negative	nonsocial	neg_nonsoc_220
279.6669620288303	5	16	rating	9	3.261	negative	nonsocial	neg_nonsoc_220
284.75682568899356	4	17	iti	10	4.06	positive	social	pos_soc_309
288.7662373651401	8	17	message	10	4.06	positive	social	pos_soc_309
296.78234429768054	5	17	rating	10	4.06	positive	social	pos_soc_309
301.8692968155956	3	18	iti	9	2.594	positive	social	pos_soc_311
304.881674087781	8	18	message	9	2.594	positive	social	pos_soc_311
312.89775764220394	5	18	rating	9	2.594	positive	social	pos_soc_311
317.98355322988937	2	19	iti	9	3.261	negative	social	neg_soc_408
319.9971860764781	8	19	message	9	3.261	negative	social	neg_soc_408
328.0132741924608	5	19	rating	9	3.261	negative	social	neg_soc_408
333.0647650017636	5	20	iti	10	2.627	positive	nonsocial	pos_nonsoc_116
338.0791145862895	8	20	message	10	2.627	positive	nonsocial	pos_nonsoc_116
346.09523064194946	5	20	rating	10	2.627	positive	nonsocial	pos_nonsoc_116
351.19213053642306	6	21	iti	9	3.594	negative	social	neg_soc_418
357.19432208960643	8	21	message	9	3.594	negative	social	neg_soc_418
365.21042788174236	5	21	rating	9	3.594	negative	social	neg_soc_418
370.2837390001514	3	22	iti	9	1.894	negative	nonsocial	neg_nonsoc_214
373.2931823222898	8	22	message	9	1.894	negative	nonsocial	neg_nonsoc_214
381.3092467751121	5	22	rating	9	1.894	negative	nonsocial	neg_nonsoc_214
386.40020350337727	3	23	iti	9	2.094	positive	nonsocial	pos_nonsoc_110
389.4085355110001	8	23	message	9	2.094	positive	nonsocial	pos_nonsoc_110
397.4246772255865	5	23	rating	9	2.094	positive	nonsocial	pos_nonsoc_110
402.494282061758	2	24	iti	9	2.662	positive	nonsocial	pos_nonsoc_106
404.5074162707897	8	24	message	9	2.662	positive	nonsocial	pos_nonsoc_106
412.52348984678974	5	24	rating	9	2.662	positive	nonsocial	pos_nonsoc_106
417.5899816909805	3	25	iti	9	1.961	negative	social	neg_soc_404
420.6061707318877	8	25	message	9	1.961	negative	social	neg_soc_404
428.62229562562425	5	25	rating	9	1.961	negative	social	neg_soc_404
433.74447949253954	4	26	iti	9	4.36	positive	social	pos_soc_307
437.7548950010096	8	26	message	9	4.36	positive	social	pos_soc_307
445.770959738933	5	26	rating	9	4.36	positive	social	pos_soc_307
450.8278437590925	6	27	iti	9	2.061	negative	nonsocial	neg_nonsoc_213
456.83676050405484	8	27	message	9	2.061	negative	nonsocial	neg_nonsoc_213
464.85283978196094	5	27	rating	9	2.061	negative	nonsocial	neg_nonsoc_213
469.9239040380926	5	28	iti	9	1.994	negative	nonsocial	neg_nonsoc_216
474.93537783267675	8	28	message	9	1.994	negative	nonsocial	neg_nonsoc_216
482.9514924628311	5	28	rating	9	1.994	negative	nonsocial	neg_nonsoc_216
489.17443275346886	5	29	iti	9	2.692	negative	nonsocial	neg_nonsoc_219
494.1839077215409	8	29	message	9	2.692	negative	nonsocial	neg_nonsoc_219
502.1999958375818	5	29	rating	9	2.692	negative	nonsocial	neg_nonsoc_219
507.26891672209604	4	30	iti	9	2.16	positive	social	pos_soc_319
511.28260772879	8	30	message	9	2.16	positive	social	pos_soc_319
519.2986921385163	5	30	rating	9	2.16	positive	social	pos_soc_319
524.3526721439557	4	31	iti	9	1.961	negative	nonsocial	neg_nonsoc_202
528.3646397293778	8	31	message	9	1.961	negative	nonsocial	neg_nonsoc_202
536.38072100305	5	31	rating	9	1.961	negative	nonsocial	neg_nonsoc_202
541.471338178846	2	32	iti	8	2.794	positive	social	pos_soc_314
543.4801474416163	8	32	message	8	2.794	positive	social	pos_soc_314
551.496240689361	5	32	rating	8	2.794	positive	social	pos_soc_314
556.5682260991889	6	33	iti	9	2.261	positive	social	pos_soc_318
562.5786937806988	8	33	message	9	2.261	positive	social	pos_soc_318
570.5947790457285	5	33	rating	9	2.261	positive	social	pos_soc_318
575.6801575340796	4	34	iti	8	4.493	negative	social	neg_soc_416
579.6940535266767	8	34	message	8	4.493	negative	social	neg_soc_416
587.710140217212	5	34	rating	8	4.493	negative	social	neg_soc_416
592.7548622146714	2	35	iti	9	2.527	negative	nonsocial	neg_nonsoc_210
594.759575750446	8	35	message	9	2.527	negative	nonsocial	neg_nonsoc_210
602.7756516071968	5	35	rating	9	2.527	negative	nonsocial	neg_nonsoc_210
607.8742857566685	6	36	iti	9	2.894	negative	social	neg_soc_411
613.8747678584186	8	36	message	9	2.894	negative	social	neg_soc_411
621.8908642422757	5	36	rating	9	2.894	negative	social	neg_soc_411
626.9516447054921	6	37	iti	9	2.861	positive	nonsocial	pos_nonsoc_102
632.9566610159818	8	37	message	9	2.861	positive	nonsocial	pos_nonsoc_102
640.9727231880534	5	37	rating	9	2.861	positive	nonsocial	pos_nonsoc_102
646.070461557596	4	38	iti	9	3.061	negative	social	neg_soc_412
650.0720173408627	8	38	message	9	3.061	negative	social	neg_soc_412
658.0881057419465	5	38	rating	9	3.061	negative	social	neg_soc_412
663.1561556501547	5	39	iti	9	2.195	positive	nonsocial	pos_nonsoc_118
668.1706027384498	8	39	message	9	2.195	positive	nonsocial	pos_nonsoc_118
676.1867102411343	5	39	rating	9	2.195	positive	nonsocial	pos_nonsoc_118
681.2660896840389	4	40	iti	10	3.028	negative	social	neg_soc_413
685.2693378127879	8	40	message	10	3.028	negative	social	neg_soc_413
693.2854153801454	5	40	rating	10	3.028	negative	social	neg_soc_413
