onset	duration	trial	trial_type	rating	resp_time	valence	s_ns	id
10.103965790345683	4	1	iti	8	2.865	positive	nonsocial	pos_nonsoc_108
14.118479918164667	8	1	message	8	2.865	positive	nonsocial	pos_nonsoc_108
22.13458005421853	5	1	rating	8	2.865	positive	nonsocial	pos_nonsoc_108
27.210529977062833	3	2	iti	9	2.142	negative	nonsocial	neg_nonsoc_209
30.217288259489578	8	2	message	9	2.142	negative	nonsocial	neg_nonsoc_209
38.23343116044998	5	2	rating	9	2.142	negative	nonsocial	neg_nonsoc_209
43.32965707097901	3	3	iti	6	1.409	negative	social	neg_soc_414
46.332778054638766	8	3	message	6	1.409	negative	social	neg_soc_414
54.348891305271536	5	3	rating	6	1.409	negative	social	neg_soc_414
59.45760371633514	3	4	iti	6	1.409	positive	social	pos_soc_308
62.46493789964006	8	4	message	6	1.409	positive	social	pos_soc_308
70.48107994531165	5	4	rating	6	1.409	positive	social	pos_soc_308
75.60647124430398	4	5	iti	5.0	0.0	negative	social	neg_soc_405
79.61367855835124	8	5	message	5.0	0.0	negative	social	neg_soc_405
87.62979408977844	5	5	rating	5.0	0.0	negative	social	neg_soc_405
92.73112014432263	4	6	iti	8	1.809	positive	nonsocial	pos_nonsoc_119
96.74576199670264	8	6	message	8	1.809	positive	nonsocial	pos_nonsoc_119
104.76187125593424	5	6	rating	8	1.809	positive	nonsocial	pos_nonsoc_119
109.88914620697324	6	7	iti	9	1.775	positive	social	pos_soc_302
115.8943675182818	8	7	message	9	1.775	positive	social	pos_soc_302
123.91050899375114	5	7	rating	9	1.775	positive	social	pos_soc_302
129.0053325000772	5	8	iti	6	2.142	negative	social	neg_soc_401
134.00970621072338	8	8	message	6	2.142	negative	social	neg_soc_401
142.0258206017461	5	8	rating	6	2.142	negative	social	neg_soc_401
147.12306916397938	5	9	iti	7	1.809	negative	social	neg_soc_403
152.12505174554826	8	9	message	7	1.809	negative	social	neg_soc_403
160.14116128988098	5	9	rating	7	1.809	negative	social	neg_soc_403
165.23121622284816	4	10	iti	4	0.775	negative	social	neg_soc_409
169.24046541914868	8	10	message	4	0.775	negative	social	neg_soc_409
177.2565438876336	5	10	rating	4	0.775	negative	social	neg_soc_409
182.38550947842305	6	11	iti	10	1.875	negative	social	neg_soc_407
188.38906780463003	8	11	message	10	1.875	negative	social	neg_soc_407
196.40515767710167	5	11	rating	10	1.875	negative	social	neg_soc_407
201.49683967261808	4	12	iti	8	4.675	negative	nonsocial	neg_nonsoc_217
205.50445952557493	8	12	message	8	4.675	negative	nonsocial	neg_nonsoc_217
213.5205884566676	5	12	rating	8	4.675	negative	nonsocial	neg_nonsoc_217
218.59601750283036	3	13	iti	6	1.008	negative	nonsocial	neg_nonsoc_207
221.60330692552088	8	13	message	6	1.008	negative	nonsocial	neg_nonsoc_207
229.61942046124022	5	13	rating	6	1.008	negative	nonsocial	neg_nonsoc_207
234.71872173951124	4	14	iti	10	1.908	negative	social	neg_soc_406
238.73538665757223	8	14	message	10	1.908	negative	social	neg_soc_406
246.75149962310388	5	14	rating	10	1.908	negative	social	neg_soc_406
251.82194741169224	4	15	iti	7	1.175	negative	nonsocial	neg_nonsoc_204
255.83413626841502	8	15	message	7	1.175	negative	nonsocial	neg_nonsoc_204
263.85025151472655	5	15	rating	7	1.175	negative	nonsocial	neg_nonsoc_204
268.94585505315627	4	16	iti	4	1.675	negative	social	neg_soc_417
272.949552507911	8	16	message	4	1.675	negative	social	neg_soc_417
280.9656429505703	5	16	rating	4	1.675	negative	social	neg_soc_417
286.05590600613505	6	17	iti	8	1.574	positive	nonsocial	pos_nonsoc_112
292.0648207807826	8	17	message	8	1.574	positive	nonsocial	pos_nonsoc_112
300.0809280443209	5	17	rating	8	1.574	positive	nonsocial	pos_nonsoc_112
305.15436766653147	2	18	iti	7	1.108	positive	nonsocial	pos_nonsoc_104
307.1637132264441	8	18	message	7	1.108	positive	nonsocial	pos_nonsoc_104
315.1797791505669	5	18	rating	7	1.108	positive	nonsocial	pos_nonsoc_104
320.27269192039967	2	19	iti	6	0.742	negative	nonsocial	neg_nonsoc_203
322.2792751517554	8	19	message	6	0.742	negative	nonsocial	neg_nonsoc_203
330.29538868747477	5	19	rating	6	0.742	negative	nonsocial	neg_nonsoc_203
335.39343894938065	6	20	iti	7	2.308	negative	nonsocial	neg_nonsoc_201
341.3945482713316	8	20	message	7	2.308	negative	nonsocial	neg_nonsoc_201
349.41065895605425	5	20	rating	7	2.308	negative	nonsocial	neg_nonsoc_201
354.5577557313518	5	21	iti	5.0	0.0	positive	social	pos_soc_305
359.5598868497327	8	21	message	5.0	0.0	positive	social	pos_soc_305
367.5759986748599	5	21	rating	5.0	0.0	positive	social	pos_soc_305
372.66271680386853	2	22	iti	7	1.808	negative	nonsocial	neg_nonsoc_206
374.67542568198405	8	22	message	7	1.808	negative	nonsocial	neg_nonsoc_206
382.6915540428745	5	22	rating	7	1.808	negative	nonsocial	neg_nonsoc_206
387.77308421723137	6	23	iti	4	2.474	positive	social	pos_soc_316
393.7740518447681	8	23	message	4	2.474	positive	social	pos_soc_316
401.7901879033452	5	23	rating	4	2.474	positive	social	pos_soc_316
406.8710612085706	3	24	iti	6	2.075	positive	nonsocial	pos_nonsoc_111
409.8728379483364	8	24	message	6	2.075	positive	nonsocial	pos_nonsoc_111
417.88899025757564	5	24	rating	6	2.075	positive	nonsocial	pos_nonsoc_111
423.0453584669449	3	25	iti	7	1.809	positive	social	pos_soc_317
426.05502134254493	8	25	message	7	1.809	positive	social	pos_soc_317
434.0711363037699	5	25	rating	7	1.809	positive	social	pos_soc_317
439.1600653790083	5	26	iti	9	1.808	positive	social	pos_soc_320
444.1703432141221	8	26	message	9	1.808	positive	social	pos_soc_320
452.18647784720815	5	26	rating	9	1.808	positive	social	pos_soc_320
457.28345214377623	2	27	iti	8	1.808	positive	social	pos_soc_303
459.2859296579845	8	27	message	8	1.808	positive	social	pos_soc_303
467.3020417682128	5	27	rating	8	1.808	positive	social	pos_soc_303
472.41357124692877	4	28	iti	7	1.874	positive	social	pos_soc_301
476.41800397314364	8	28	message	7	1.874	positive	social	pos_soc_301
484.43411978967197	5	28	rating	7	1.874	positive	social	pos_soc_301
489.5548380235996	4	29	iti	6	1.371	positive	social	pos_soc_312
493.56672638549935	8	29	message	6	1.371	positive	social	pos_soc_312
501.5829630841763	5	29	rating	6	1.371	positive	social	pos_soc_312
506.6806683757459	5	30	iti	8	1.275	positive	nonsocial	pos_nonsoc_105
511.6820955835865	8	30	message	8	1.275	positive	nonsocial	pos_nonsoc_105
519.6982071236125	5	30	rating	8	1.275	positive	nonsocial	pos_nonsoc_105
524.7886506471114	6	31	iti	7	3.542	positive	social	pos_soc_313
530.7973621458659	8	31	message	7	3.542	positive	social	pos_soc_313
538.8134739709931	5	31	rating	7	3.542	positive	social	pos_soc_313
543.8951421334787	2	32	iti	4	1.941	negative	nonsocial	neg_nonsoc_215
545.8962451832485	8	32	message	4	1.941	negative	nonsocial	neg_nonsoc_215
553.9123304941168	5	32	rating	4	1.941	negative	nonsocial	neg_nonsoc_215
559.0306453397061	6	33	iti	6	2.642	negative	social	neg_soc_415
565.0448601131066	8	33	message	6	2.642	negative	social	neg_soc_415
573.0609710829303	5	33	rating	6	2.642	negative	social	neg_soc_415
578.1649973143649	3	34	iti	7	1.44	positive	nonsocial	pos_nonsoc_101
581.17701311571	8	34	message	7	1.44	positive	nonsocial	pos_nonsoc_101
589.1931252259383	5	34	rating	7	1.44	positive	nonsocial	pos_nonsoc_101
594.2891415883641	4	35	iti	7	1.675	negative	nonsocial	neg_nonsoc_205
598.2924299254082	8	35	message	7	1.675	negative	nonsocial	neg_nonsoc_205
606.3085423207376	5	35	rating	7	1.675	negative	nonsocial	neg_nonsoc_205
611.396218383903	6	36	iti	6	3.108	positive	nonsocial	pos_nonsoc_109
617.4076987684821	8	36	message	6	3.108	positive	nonsocial	pos_nonsoc_109
625.4237880707515	5	36	rating	6	3.108	positive	nonsocial	pos_nonsoc_109
630.5087830586999	3	37	iti	5.0	0.0	positive	nonsocial	pos_nonsoc_120
633.5231871381402	8	37	message	5.0	0.0	positive	nonsocial	pos_nonsoc_120
641.5392952569673	5	37	rating	5.0	0.0	positive	nonsocial	pos_nonsoc_120
646.6736785925605	5	38	iti	8	1.475	negative	nonsocial	neg_nonsoc_218
651.6885245761368	8	38	message	8	1.475	negative	nonsocial	neg_nonsoc_218
659.704636401264	5	38	rating	8	1.475	negative	nonsocial	neg_nonsoc_218
664.7946060894901	5	39	iti	10	1.909	negative	social	neg_soc_402
669.803865834474	8	39	message	10	1.909	negative	social	neg_soc_402
677.8199807956989	5	39	rating	10	1.909	negative	social	neg_soc_402
682.897984860072	2	40	iti	6	0.908	positive	nonsocial	pos_nonsoc_107
684.9027599907422	8	40	message	6	0.908	positive	nonsocial	pos_nonsoc_107
692.918875807256	5	40	rating	6	0.908	positive	nonsocial	pos_nonsoc_107
