onset	duration	trial	trial_type	rating	resp_time	valence	s_ns	id
10.088416214348399	3	1	iti	7	4.202	negative	nonsocial	neg_nonsoc_212
13.0944212469185	8	1	message	7	4.202	negative	nonsocial	neg_nonsoc_212
21.11050080996938	5	1	rating	7	4.202	negative	nonsocial	neg_nonsoc_212
26.223474565485958	4	2	iti	7	2.461	positive	social	pos_soc_306
30.22644187208789	8	2	message	7	2.461	positive	social	pos_soc_306
38.24253569006396	5	2	rating	7	2.461	positive	social	pos_soc_306
43.3430911192263	6	3	iti	9	3.261	negative	social	neg_soc_412
49.35826349841955	8	3	message	9	3.261	negative	social	neg_soc_412
57.37440378747124	5	3	rating	9	3.261	negative	social	neg_soc_412
62.427884870325215	5	4	iti	3	2.595	negative	nonsocial	neg_nonsoc_213
67.44027183584694	8	4	message	3	2.595	negative	nonsocial	neg_nonsoc_213
75.45633885455027	5	4	rating	3	2.595	negative	nonsocial	neg_nonsoc_213
80.5304836014111	4	5	iti	3	2.795	negative	nonsocial	neg_nonsoc_214
84.53897184308153	8	5	message	3	2.795	negative	nonsocial	neg_nonsoc_214
92.55505169123353	5	5	rating	3	2.795	negative	nonsocial	neg_nonsoc_214
97.64629779465031	4	6	iti	6	1.328	positive	nonsocial	pos_nonsoc_110
101.65433215929079	8	6	message	6	1.328	positive	nonsocial	pos_nonsoc_110
109.67040887135954	5	6	rating	6	1.328	positive	nonsocial	pos_nonsoc_110
114.75678891125426	6	7	iti	9	1.995	negative	social	neg_soc_408
120.76953652655357	8	7	message	9	1.995	negative	social	neg_soc_408
128.78561523430108	5	7	rating	9	1.995	negative	social	neg_soc_408
133.87948310477077	5	8	iti	7	2.495	negative	social	neg_soc_410
138.88482072141778	8	8	message	7	2.495	negative	social	neg_soc_410
146.90090826722735	5	8	rating	7	2.495	negative	social	neg_soc_410
151.97182313165104	4	9	iti	3	1.595	positive	nonsocial	pos_nonsoc_106
155.9834887976176	8	9	message	3	1.595	positive	nonsocial	pos_nonsoc_106
163.99960200229543	5	9	rating	3	1.595	positive	nonsocial	pos_nonsoc_106
169.04182282944384	4	10	iti	7	2.128	negative	nonsocial	neg_nonsoc_220
173.0488758845895	8	10	message	7	2.128	negative	nonsocial	neg_nonsoc_220
181.06494090759952	5	10	rating	7	2.128	negative	nonsocial	neg_nonsoc_220
186.1441395979782	4	11	iti	5.0	0.0	negative	nonsocial	neg_nonsoc_219
190.14754253528372	8	11	message	5.0	0.0	negative	nonsocial	neg_nonsoc_219
198.16366229724372	5	11	rating	5.0	0.0	negative	nonsocial	neg_nonsoc_219
203.25151344609912	5	12	iti	7	1.128	negative	nonsocial	neg_nonsoc_216
208.26285666551848	8	12	message	7	1.128	negative	nonsocial	neg_nonsoc_216
216.278945351718	5	12	rating	7	1.128	negative	nonsocial	neg_nonsoc_216
221.34715120890178	2	13	iti	7	1.128	positive	social	pos_soc_319
223.3617052091431	8	13	message	7	1.128	positive	social	pos_soc_319
231.37779275495268	5	13	rating	7	1.128	positive	social	pos_soc_319
236.4876689138182	6	14	iti	9	2.528	positive	nonsocial	pos_nonsoc_103
242.493577297937	8	14	message	9	2.528	positive	nonsocial	pos_nonsoc_103
250.50965999707114	5	14	rating	9	2.528	positive	nonsocial	pos_nonsoc_103
255.60761190549238	3	15	iti	8	1.761	negative	social	neg_soc_418
258.6090094590036	8	15	message	8	1.761	negative	social	neg_soc_418
266.6250519592286	5	15	rating	8	1.761	negative	social	neg_soc_418
271.71035917295376	6	16	iti	7	2.926	negative	social	neg_soc_416
277.72417248695274	8	16	message	7	2.926	negative	social	neg_soc_416
285.7403039379569	5	16	rating	7	2.926	negative	social	neg_soc_416
290.8293302633829	4	17	iti	9	2.127	positive	social	pos_soc_309
294.8395724318689	8	17	message	9	2.127	positive	social	pos_soc_309
302.8556060940318	5	17	rating	9	2.127	positive	social	pos_soc_309
307.9149607789732	4	18	iti	5.0	0.0	positive	nonsocial	pos_nonsoc_114
311.92156793986214	8	18	message	5.0	0.0	positive	nonsocial	pos_nonsoc_114
319.9377150712826	5	18	rating	5.0	0.0	positive	nonsocial	pos_nonsoc_114
324.99826403440966	5	19	iti	7	0.961	positive	nonsocial	pos_nonsoc_102
330.0035548948799	8	19	message	7	0.961	positive	nonsocial	pos_nonsoc_102
338.01963958970737	5	19	rating	7	0.961	positive	nonsocial	pos_nonsoc_102
343.1095665417379	6	20	iti	7	3.195	positive	social	pos_soc_310
349.11872077382577	8	20	message	7	3.195	positive	social	pos_soc_310
357.1348450973601	5	20	rating	7	3.195	positive	social	pos_soc_310
362.21428184508113	4	21	iti	7	2.528	negative	social	neg_soc_413
366.21746012468066	8	21	message	7	2.528	negative	social	neg_soc_413
374.23348494878155	5	21	rating	7	2.528	negative	social	neg_soc_413
379.3010761333135	2	22	iti	8	1.328	positive	nonsocial	pos_nonsoc_118
381.3163006855466	8	22	message	8	1.328	positive	nonsocial	pos_nonsoc_118
389.3323802485975	5	22	rating	8	1.328	positive	nonsocial	pos_nonsoc_118
394.40272947731137	2	23	iti	8	2.76	positive	social	pos_soc_315
396.41514780368016	8	23	message	8	2.76	positive	social	pos_soc_315
404.4312205243623	5	23	rating	8	2.76	positive	social	pos_soc_315
409.50750094509567	2	24	iti	9	2.462	negative	nonsocial	neg_nonsoc_208
411.51399292613496	8	24	message	9	2.462	negative	nonsocial	neg_nonsoc_208
419.53008674411103	5	24	rating	9	2.462	negative	nonsocial	neg_nonsoc_208
424.6236946046265	5	25	iti	7	2.367	positive	social	pos_soc_304
429.6292417687655	8	25	message	7	2.367	positive	social	pos_soc_304
437.6453612456244	5	25	rating	7	2.367	positive	social	pos_soc_304
442.7194532492431	3	26	iti	7	2.594	positive	nonsocial	pos_nonsoc_113
445.7279891023936	8	26	message	7	2.594	positive	nonsocial	pos_nonsoc_113
453.74412853614194	5	26	rating	7	2.594	positive	nonsocial	pos_nonsoc_113
458.8106186697405	6	27	iti	9	2.495	negative	social	neg_soc_404
464.8265827678406	8	27	message	9	2.495	negative	social	neg_soc_404
472.8426617606892	5	27	rating	9	2.495	negative	social	neg_soc_404
477.9417529232596	3	28	iti	7	3.194	negative	social	neg_soc_411
480.94201949048147	8	28	message	7	3.194	negative	social	neg_soc_411
488.958068262873	5	28	rating	7	3.194	negative	social	neg_soc_411
494.0322765867313	5	29	iti	7	2.028	positive	nonsocial	pos_nonsoc_117
499.0406362489157	8	29	message	7	2.028	positive	nonsocial	pos_nonsoc_117
507.05671296098444	5	29	rating	7	2.028	positive	nonsocial	pos_nonsoc_117
512.143475603254	3	30	iti	8	2.095	positive	social	pos_soc_307
515.1560715460655	8	30	message	8	2.095	positive	social	pos_soc_307
523.1721559557918	5	30	rating	8	2.095	positive	social	pos_soc_307
528.2609105822339	4	31	iti	4	3.261	negative	social	neg_soc_420
532.2714275858016	8	31	message	4	3.261	negative	social	neg_soc_420
540.2875088594301	5	31	rating	4	3.261	negative	social	neg_soc_420
545.3388907610351	3	32	iti	9	1.895	positive	nonsocial	pos_nonsoc_115
548.3535311461746	8	32	message	9	1.895	positive	nonsocial	pos_nonsoc_115
556.3696152707853	5	32	rating	9	1.895	positive	nonsocial	pos_nonsoc_115
561.4149898590404	2	33	iti	9	1.827	negative	nonsocial	neg_nonsoc_210
563.4190935687948	8	33	message	9	1.827	negative	nonsocial	neg_nonsoc_210
571.4351306521421	5	33	rating	9	1.827	negative	nonsocial	neg_nonsoc_210
576.5070031628857	4	34	iti	8	4.261	negative	social	neg_soc_419
580.5177402625995	8	34	message	8	4.261	negative	social	neg_soc_419
588.5338195405493	5	34	rating	8	4.261	negative	social	neg_soc_419
593.6240903215221	6	35	iti	9	1.761	positive	social	pos_soc_314
599.6329426341545	8	35	message	9	1.761	positive	social	pos_soc_314
607.6490213419165	5	35	rating	9	1.761	positive	social	pos_soc_314
612.7213186496083	2	36	iti	8	1.961	positive	social	pos_soc_318
614.7317888969992	8	36	message	8	1.961	positive	social	pos_soc_318
622.7478690302523	5	36	rating	8	1.961	positive	social	pos_soc_318
627.8149228038383	5	37	iti	9	2.528	negative	nonsocial	neg_nonsoc_211
632.8304053703469	8	37	message	9	2.528	negative	nonsocial	neg_nonsoc_211
640.8464852184843	5	37	rating	9	2.528	negative	nonsocial	neg_nonsoc_211
645.9328749517445	3	38	iti	8	1.662	positive	social	pos_soc_311
648.9458349655179	8	38	message	8	1.662	positive	social	pos_soc_311
656.961919090143	5	38	rating	8	1.662	positive	social	pos_soc_311
662.0136468163837	6	39	iti	7	1.161	positive	nonsocial	pos_nonsoc_116
668.0276537123573	8	39	message	7	1.161	positive	nonsocial	pos_nonsoc_116
676.0437931461056	5	39	rating	7	1.161	positive	nonsocial	pos_nonsoc_116
681.0962142322387	3	40	iti	10	2.361	negative	nonsocial	neg_nonsoc_202
684.109795190845	8	40	message	10	2.361	negative	nonsocial	neg_nonsoc_202
692.1258636350394	5	40	rating	10	2.361	negative	nonsocial	neg_nonsoc_202
