onset,duration,trial,trial_type,rating,resp_time,subj_day_num,sms_timestamp,TotalSteps,TotalSteps_norm,TotalDistance,VeryActiveDistance,ModeratelyActiveDistance,LightActiveDistance,SedentaryActiveDistance,VeryActiveMinutes,FairlyActiveMinutes,LightlyActiveMinutes,SedentaryMinutes,Calories,Floors,CaloriesBMR,MarginalCalories,RestingHeartRate,RestingHeartRate_norm,valence,s_ns,msg_id,message,survey_complete_timestamp,location,lap,hap,han,lan,la,p,n,ha,self_efficacy_daily,TotalSleepRecords,TotalMinutesAsleep,TotalMinutesLight,TotalMinutesDeep,TotalMinutesREM
10.110263008442416,3.0,1.0,iti,7.0,1.3319999999999999,24.0,1577027220.0,5787,-0.112877373221869,4.230000019073491,0.170000001788139,0.509999990463257,3.54999995231628,0.0,3,12,244,723,2569,4,1764,485,58.0,1.2377696710910338,negative,nonsocial,211.0,"""Physical inactivity causes conditions like high blood pressure that can lead to heart attack and stroke later in life.""",1577038899,Home,3.0,2.0,3.0,3.0,4.0,2.0,3.0,3.0,0.0,1,396,268,80,48
13.114565704781851,8.0,1.0,message,7.0,1.3319999999999999,24.0,1577027220.0,5787,-0.112877373221869,4.230000019073491,0.170000001788139,0.509999990463257,3.54999995231628,0.0,3,12,244,723,2569,4,1764,485,58.0,1.2377696710910338,negative,nonsocial,211.0,"""Physical inactivity causes conditions like high blood pressure that can lead to heart attack and stroke later in life.""",1577038899,Home,3.0,2.0,3.0,3.0,4.0,2.0,3.0,3.0,0.0,1,396,268,80,48
21.130633247877995,5.0,1.0,rating,7.0,1.3319999999999999,24.0,1577027220.0,5787,-0.112877373221869,4.230000019073491,0.170000001788139,0.509999990463257,3.54999995231628,0.0,3,12,244,723,2569,4,1764,485,58.0,1.2377696710910338,negative,nonsocial,211.0,"""Physical inactivity causes conditions like high blood pressure that can lead to heart attack and stroke later in life.""",1577038899,Home,3.0,2.0,3.0,3.0,4.0,2.0,3.0,3.0,0.0,1,396,268,80,48
26.23393730357202,5.0,2.0,iti,4.0,0.841,77.0,1581607800.0,6524,-0.022870073896175024,4.8899998664856,0.9700000286102299,0.540000021457672,3.3800001144409197,0.0,16,14,173,847,2488,26,1764,496,55.0,-1.0373430722710377,negative,nonsocial,214.0,"""Avoid long periods of sitting in front of a TV or computer because doing this can hurt your health and contrbute to muscle atrophy.""",1581591028,Work,3.0,2.0,1.0,3.0,4.0,3.0,2.0,2.0,0.0,1,352,187,72,93
31.246471914440924,8.0,2.0,message,4.0,0.841,77.0,1581607800.0,6524,-0.022870073896175024,4.8899998664856,0.9700000286102299,0.540000021457672,3.3800001144409197,0.0,16,14,173,847,2488,26,1764,496,55.0,-1.0373430722710377,negative,nonsocial,214.0,"""Avoid long periods of sitting in front of a TV or computer because doing this can hurt your health and contrbute to muscle atrophy.""",1581591028,Work,3.0,2.0,1.0,3.0,4.0,3.0,2.0,2.0,0.0,1,352,187,72,93
39.262516079521454,5.0,2.0,rating,4.0,0.841,77.0,1581607800.0,6524,-0.022870073896175024,4.8899998664856,0.9700000286102299,0.540000021457672,3.3800001144409197,0.0,16,14,173,847,2488,26,1764,496,55.0,-1.0373430722710377,negative,nonsocial,214.0,"""Avoid long periods of sitting in front of a TV or computer because doing this can hurt your health and contrbute to muscle atrophy.""",1581591028,Work,3.0,2.0,1.0,3.0,4.0,3.0,2.0,2.0,0.0,1,352,187,72,93
44.35629216596864,3.0,3.0,iti,6.0,0.8740000000000001,78.0,1581700440.0,10200,0.42606728339181826,7.51999998092651,3.2699999809265097,0.379999995231628,3.8499999046325697,0.0,57,9,210,799,2957,21,1764,860,55.0,-1.0373430722710377,negative,social,404.0,"""You are more likely to die early if you stay inactive. You will miss out on the people who mean most to you in life.""",1581686913,School,2.0,3.0,3.0,1.0,4.0,3.0,2.0,3.0,0.0,1,333,156,84,93
47.36187295585115,8.0,3.0,message,6.0,0.8740000000000001,78.0,1581700440.0,10200,0.42606728339181826,7.51999998092651,3.2699999809265097,0.379999995231628,3.8499999046325697,0.0,57,9,210,799,2957,21,1764,860,55.0,-1.0373430722710377,negative,social,404.0,"""You are more likely to die early if you stay inactive. You will miss out on the people who mean most to you in life.""",1581686913,School,2.0,3.0,3.0,1.0,4.0,3.0,2.0,3.0,0.0,1,333,156,84,93
55.37792282288138,5.0,3.0,rating,6.0,0.8740000000000001,78.0,1581700440.0,10200,0.42606728339181826,7.51999998092651,3.2699999809265097,0.379999995231628,3.8499999046325697,0.0,57,9,210,799,2957,21,1764,860,55.0,-1.0373430722710377,negative,social,404.0,"""You are more likely to die early if you stay inactive. You will miss out on the people who mean most to you in life.""",1581686913,School,2.0,3.0,3.0,1.0,4.0,3.0,2.0,3.0,0.0,1,333,156,84,93
60.510434580312,5.0,4.0,iti,5.0,0.0,40.0,1578415020.0,15953,1.128661575143131,11.770000457763699,8.27999973297119,0.239999994635582,3.2300000190734903,0.0,114,7,198,509,3449,14,1764,1317,58.0,1.2377696710910338,positive,social,304.0,"""As you become more active, your bones will grow stronger. Having a support network can help you stay physically active. Be active with friends and family and get stronger together!""",1578399616,Home,4.0,3.0,2.0,2.0,4.0,3.0,2.0,2.0,7.0,2,530,213,130,131
65.52708400806296,8.0,4.0,message,5.0,0.0,40.0,1578415020.0,15953,1.128661575143131,11.770000457763699,8.27999973297119,0.239999994635582,3.2300000190734903,0.0,114,7,198,509,3449,14,1764,1317,58.0,1.2377696710910338,positive,social,304.0,"""As you become more active, your bones will grow stronger. Having a support network can help you stay physically active. Be active with friends and family and get stronger together!""",1578399616,Home,4.0,3.0,2.0,2.0,4.0,3.0,2.0,2.0,7.0,2,530,213,130,131
73.543176924868,5.0,4.0,rating,5.0,0.0,40.0,1578415020.0,15953,1.128661575143131,11.770000457763699,8.27999973297119,0.239999994635582,3.2300000190734903,0.0,114,7,198,509,3449,14,1764,1317,58.0,1.2377696710910338,positive,social,304.0,"""As you become more active, your bones will grow stronger. Having a support network can help you stay physically active. Be active with friends and family and get stronger together!""",1578399616,Home,4.0,3.0,2.0,2.0,4.0,3.0,2.0,2.0,7.0,2,530,213,130,131
78.64028666015656,4.0,5.0,iti,8.0,1.508,36.0,1578066900.0,17240,1.2858385008312831,12.8000001907349,7.98000001907349,0.7400000095367428,4.05999994277954,0.0,115,23,220,590,3578,23,1764,1441,54.0,-1.7957139867250616,positive,social,315.0,"""Regular physical activity can help you sleep better, giving you more energy to enjoy quality time with friends and family.""",1578049858,Home,4.0,2.0,1.0,2.0,4.0,3.0,1.0,2.0,6.0,1,419,179,114,126
82.64243145108048,8.0,5.0,message,8.0,1.508,36.0,1578066900.0,17240,1.2858385008312831,12.8000001907349,7.98000001907349,0.7400000095367428,4.05999994277954,0.0,115,23,220,590,3578,23,1764,1441,54.0,-1.7957139867250616,positive,social,315.0,"""Regular physical activity can help you sleep better, giving you more energy to enjoy quality time with friends and family.""",1578049858,Home,4.0,2.0,1.0,2.0,4.0,3.0,1.0,2.0,6.0,1,419,179,114,126
90.65849813888052,5.0,5.0,rating,8.0,1.508,36.0,1578066900.0,17240,1.2858385008312831,12.8000001907349,7.98000001907349,0.7400000095367428,4.05999994277954,0.0,115,23,220,590,3578,23,1764,1441,54.0,-1.7957139867250616,positive,social,315.0,"""Regular physical activity can help you sleep better, giving you more energy to enjoy quality time with friends and family.""",1578049858,Home,4.0,2.0,1.0,2.0,4.0,3.0,1.0,2.0,6.0,1,419,179,114,126
95.74377260825712,4.0,6.0,iti,7.0,0.775,25.0,1577115540.0,7535,0.10059991201736176,5.55999994277954,0.07999999821186099,0.430000007152557,5.03000020980835,0.0,2,16,338,601,2885,10,1764,742,56.0,-0.2789721578170139,positive,nonsocial,114.0,"""Even a small amount of activity has noticeable benefits for your mood and overall physical health!""",1577099237,Home,4.0,2.0,2.0,2.0,4.0,3.0,1.0,1.0,10.0,1,427,263,33,131
99.75775266509301,8.0,6.0,message,7.0,0.775,25.0,1577115540.0,7535,0.10059991201736176,5.55999994277954,0.07999999821186099,0.430000007152557,5.03000020980835,0.0,2,16,338,601,2885,10,1764,742,56.0,-0.2789721578170139,positive,nonsocial,114.0,"""Even a small amount of activity has noticeable benefits for your mood and overall physical health!""",1577099237,Home,4.0,2.0,2.0,2.0,4.0,3.0,1.0,1.0,10.0,1,427,263,33,131
107.77381507642711,5.0,6.0,rating,7.0,0.775,25.0,1577115540.0,7535,0.10059991201736176,5.55999994277954,0.07999999821186099,0.430000007152557,5.03000020980835,0.0,2,16,338,601,2885,10,1764,742,56.0,-0.2789721578170139,positive,nonsocial,114.0,"""Even a small amount of activity has noticeable benefits for your mood and overall physical health!""",1577099237,Home,4.0,2.0,2.0,2.0,4.0,3.0,1.0,1.0,10.0,1,427,263,33,131
112.905746374694,4.0,7.0,iti,3.0,1.074,16.0,1576342800.0,9167,0.29991051242378314,6.78000020980835,1.7200000286102302,0.9399999976158141,4.099999904632569,0.0,25,18,290,708,2917,37,1764,790,57.0,0.47939875663700987,negative,social,412.0,"""Inactive lifestyle choices like sitting for long periods of time are barriers between you and a long life. Don't voluntarily give up precious time with loved ones by making poor health decisions.""",1576331453,Hotel,4.0,3.0,1.0,2.0,3.0,4.0,1.0,4.0,0.0,1,360,215,57,88
116.90639953380743,8.0,7.0,message,3.0,1.074,16.0,1576342800.0,9167,0.29991051242378314,6.78000020980835,1.7200000286102302,0.9399999976158141,4.099999904632569,0.0,25,18,290,708,2917,37,1764,790,57.0,0.47939875663700987,negative,social,412.0,"""Inactive lifestyle choices like sitting for long periods of time are barriers between you and a long life. Don't voluntarily give up precious time with loved ones by making poor health decisions.""",1576331453,Hotel,4.0,3.0,1.0,2.0,3.0,4.0,1.0,4.0,0.0,1,360,215,57,88
124.92246451102257,5.0,7.0,rating,3.0,1.074,16.0,1576342800.0,9167,0.29991051242378314,6.78000020980835,1.7200000286102302,0.9399999976158141,4.099999904632569,0.0,25,18,290,708,2917,37,1764,790,57.0,0.47939875663700987,negative,social,412.0,"""Inactive lifestyle choices like sitting for long periods of time are barriers between you and a long life. Don't voluntarily give up precious time with loved ones by making poor health decisions.""",1576331453,Hotel,4.0,3.0,1.0,2.0,3.0,4.0,1.0,4.0,0.0,1,360,215,57,88
130.01866849053476,5.0,8.0,iti,8.0,1.008,50.0,1579278660.0,24803,2.2094819266117764,18.3099994659424,8.32999992370605,2.5,7.449999809265139,0.0,126,67,374,479,4353,39,1764,2024,56.0,-0.2789721578170139,positive,social,319.0,"""In a bad mood? Try taking a walk with a friend! Walking has been shown to help you clear your mind and improve your mood.""",1579261306,Class,4.0,3.0,2.0,1.0,3.0,3.0,1.0,3.0,5.0,1,351,221,63,67
135.02164177572558,8.0,8.0,message,8.0,1.008,50.0,1579278660.0,24803,2.2094819266117764,18.3099994659424,8.32999992370605,2.5,7.449999809265139,0.0,126,67,374,479,4353,39,1764,2024,56.0,-0.2789721578170139,positive,social,319.0,"""In a bad mood? Try taking a walk with a friend! Walking has been shown to help you clear your mind and improve your mood.""",1579261306,Class,4.0,3.0,2.0,1.0,3.0,3.0,1.0,3.0,5.0,1,351,221,63,67
143.0377073231357,5.0,8.0,rating,8.0,1.008,50.0,1579278660.0,24803,2.2094819266117764,18.3099994659424,8.32999992370605,2.5,7.449999809265139,0.0,126,67,374,479,4353,39,1764,2024,56.0,-0.2789721578170139,positive,social,319.0,"""In a bad mood? Try taking a walk with a friend! Walking has been shown to help you clear your mind and improve your mood.""",1579261306,Class,4.0,3.0,2.0,1.0,3.0,3.0,1.0,3.0,5.0,1,351,221,63,67
148.15794305341842,2.0,9.0,iti,6.0,1.307,12.0,1575996480.0,4214,-0.3049825046184994,3.10999989509583,0.0,0.0,3.08999991416931,0.0,0,0,180,881,2314,5,1764,336,58.0,1.2377696710910338,positive,social,310.0,"""Even a small increase in physical activity can have tangible benefits with regard to your mood and overall health, and it provides a way to spend time with family and friends.""",1575981143,Home,3.0,1.0,3.0,3.0,3.0,2.0,2.0,3.0,2.0,1,329,186,80,63
150.17044715883094,8.0,9.0,message,6.0,1.307,12.0,1575996480.0,4214,-0.3049825046184994,3.10999989509583,0.0,0.0,3.08999991416931,0.0,0,0,180,881,2314,5,1764,336,58.0,1.2377696710910338,positive,social,310.0,"""Even a small increase in physical activity can have tangible benefits with regard to your mood and overall health, and it provides a way to spend time with family and friends.""",1575981143,Home,3.0,1.0,3.0,3.0,3.0,2.0,2.0,3.0,2.0,1,329,186,80,63
158.18648163057512,5.0,9.0,rating,6.0,1.307,12.0,1575996480.0,4214,-0.3049825046184994,3.10999989509583,0.0,0.0,3.08999991416931,0.0,0,0,180,881,2314,5,1764,336,58.0,1.2377696710910338,positive,social,310.0,"""Even a small increase in physical activity can have tangible benefits with regard to your mood and overall health, and it provides a way to spend time with family and friends.""",1575981143,Home,3.0,1.0,3.0,3.0,3.0,2.0,2.0,3.0,2.0,1,329,186,80,63
163.31494043736166,2.0,10.0,iti,2.0,1.4080000000000001,52.0,1579447080.0,22780,1.9624198281913168,16.8400001525879,11.5799999237061,1.38999998569489,3.8499999046325697,0.0,156,34,206,580,3913,21,1764,1717,56.0,-0.2789721578170139,negative,social,418.0,"""The ability to walk is a gift. Make sure to stay active so that you will never lose it. Loss of mobility can make it difficult for you to stay connected with friends and family as you age.""",1579448749,Gym,3.0,3.0,2.0,1.0,3.0,3.0,1.0,2.0,10.0,1,407,256,48,103
165.31925197173402,8.0,10.0,message,2.0,1.4080000000000001,52.0,1579447080.0,22780,1.9624198281913168,16.8400001525879,11.5799999237061,1.38999998569489,3.8499999046325697,0.0,156,34,206,580,3913,21,1764,1717,56.0,-0.2789721578170139,negative,social,418.0,"""The ability to walk is a gift. Make sure to stay active so that you will never lose it. Loss of mobility can make it difficult for you to stay connected with friends and family as you age.""",1579448749,Gym,3.0,3.0,2.0,1.0,3.0,3.0,1.0,2.0,10.0,1,407,256,48,103
173.33531979993128,5.0,10.0,rating,2.0,1.4080000000000001,52.0,1579447080.0,22780,1.9624198281913168,16.8400001525879,11.5799999237061,1.38999998569489,3.8499999046325697,0.0,156,34,206,580,3913,21,1764,1717,56.0,-0.2789721578170139,negative,social,418.0,"""The ability to walk is a gift. Make sure to stay active so that you will never lose it. Loss of mobility can make it difficult for you to stay connected with friends and family as you age.""",1579448749,Gym,3.0,3.0,2.0,1.0,3.0,3.0,1.0,2.0,10.0,1,407,256,48,103
178.45856359734168,4.0,11.0,iti,6.0,0.775,46.0,1578935400.0,5567,-0.13974522376685228,4.09000015258789,0.709999978542328,0.540000021457672,2.82999992370605,0.0,10,10,186,803,2465,7,1764,428,57.0,0.47939875663700987,negative,social,410.0,"""You would feel bad for a loved one that was feeling down about their health. Don't put the people around you in that position. Inactivity can reduce your health and mental sharpness.""",1578934334,Home,4.0,2.0,1.0,3.0,3.0,3.0,1.0,1.0,0.0,1,361,168,86,107
182.46787033067085,8.0,11.0,message,6.0,0.775,46.0,1578935400.0,5567,-0.13974522376685228,4.09000015258789,0.709999978542328,0.540000021457672,2.82999992370605,0.0,10,10,186,803,2465,7,1764,428,57.0,0.47939875663700987,negative,social,410.0,"""You would feel bad for a loved one that was feeling down about their health. Don't put the people around you in that position. Inactivity can reduce your health and mental sharpness.""",1578934334,Home,4.0,2.0,1.0,3.0,3.0,3.0,1.0,1.0,0.0,1,361,168,86,107
190.48395041807092,5.0,11.0,rating,6.0,0.775,46.0,1578935400.0,5567,-0.13974522376685228,4.09000015258789,0.709999978542328,0.540000021457672,2.82999992370605,0.0,10,10,186,803,2465,7,1764,428,57.0,0.47939875663700987,negative,social,410.0,"""You would feel bad for a loved one that was feeling down about their health. Don't put the people around you in that position. Inactivity can reduce your health and mental sharpness.""",1578934334,Home,4.0,2.0,1.0,3.0,3.0,3.0,1.0,1.0,0.0,1,361,168,86,107
195.60028800582225,6.0,12.0,iti,6.0,0.575,39.0,1578325740.0,23781,2.0846685481709906,17.5499992370605,12.3100004196167,1.1000000238418601,4.1100001335144,0.0,177,40,243,486,4213,19,1764,1991,55.0,-1.0373430722710377,positive,social,311.0,"""Physical activity reduces the risk for heart disease and stroke. This means you can live longer and spend more time enjoying your later years with friends and family.""",1578312844,Supercuts,3.0,2.0,1.0,1.0,3.0,3.0,1.0,2.0,9.0,1,423,239,77,107
201.61639147124515,8.0,12.0,message,6.0,0.575,39.0,1578325740.0,23781,2.0846685481709906,17.5499992370605,12.3100004196167,1.1000000238418601,4.1100001335144,0.0,177,40,243,486,4213,19,1764,1991,55.0,-1.0373430722710377,positive,social,311.0,"""Physical activity reduces the risk for heart disease and stroke. This means you can live longer and spend more time enjoying your later years with friends and family.""",1578312844,Supercuts,3.0,2.0,1.0,1.0,3.0,3.0,1.0,2.0,9.0,1,423,239,77,107
209.63246414609603,5.0,12.0,rating,6.0,0.575,39.0,1578325740.0,23781,2.0846685481709906,17.5499992370605,12.3100004196167,1.1000000238418601,4.1100001335144,0.0,177,40,243,486,4213,19,1764,1991,55.0,-1.0373430722710377,positive,social,311.0,"""Physical activity reduces the risk for heart disease and stroke. This means you can live longer and spend more time enjoying your later years with friends and family.""",1578312844,Supercuts,3.0,2.0,1.0,1.0,3.0,3.0,1.0,2.0,9.0,1,423,239,77,107
214.7531700026957,3.0,13.0,iti,4.0,1.4409999999999998,27.0,1577289120.0,11249,0.554178079854034,8.300000190734862,4.78000020980835,1.00999999046326,2.5,0.0,70,31,183,681,2925,8,1764,863,54.0,-1.7957139867250616,positive,social,309.0,"""Take some time to be more active. Physical activity at any age helps extend your life. Later you'll appreciate the extra years on your life to spend with family and friends.""",1577287545,Home,4.0,2.0,1.0,1.0,3.0,4.0,1.0,2.0,0.0,1,430,253,60,117
217.76506741993217,8.0,13.0,message,4.0,1.4409999999999998,27.0,1577289120.0,11249,0.554178079854034,8.300000190734862,4.78000020980835,1.00999999046326,2.5,0.0,70,31,183,681,2925,8,1764,863,54.0,-1.7957139867250616,positive,social,309.0,"""Take some time to be more active. Physical activity at any age helps extend your life. Later you'll appreciate the extra years on your life to spend with family and friends.""",1577287545,Home,4.0,2.0,1.0,1.0,3.0,4.0,1.0,2.0,0.0,1,430,253,60,117
225.78119027200592,5.0,13.0,rating,4.0,1.4409999999999998,27.0,1577289120.0,11249,0.554178079854034,8.300000190734862,4.78000020980835,1.00999999046326,2.5,0.0,70,31,183,681,2925,8,1764,863,54.0,-1.7957139867250616,positive,social,309.0,"""Take some time to be more active. Physical activity at any age helps extend your life. Later you'll appreciate the extra years on your life to spend with family and friends.""",1577287545,Home,4.0,2.0,1.0,1.0,3.0,4.0,1.0,2.0,0.0,1,430,253,60,117
230.8816025804772,6.0,14.0,iti,7.0,2.108,19.0,1576595340.0,16727,1.2231875584241176,12.369999885559098,4.21000003814697,1.39999997615814,5.389999866485599,0.0,59,33,248,879,3637,56,1764,1088,56.0,-0.2789721578170139,positive,nonsocial,113.0,"""Aerobic workouts help maintain strong lungs and a healthy heart. They can be done by a simple jog or walk, yard work, and even dancing!""",1576587445,Airport,2.0,3.0,1.0,2.0,4.0,3.0,1.0,3.0,0.0,1,200,101,54,45
236.89695110686444,8.0,14.0,message,7.0,2.108,19.0,1576595340.0,16727,1.2231875584241176,12.369999885559098,4.21000003814697,1.39999997615814,5.389999866485599,0.0,59,33,248,879,3637,56,1764,1088,56.0,-0.2789721578170139,positive,nonsocial,113.0,"""Aerobic workouts help maintain strong lungs and a healthy heart. They can be done by a simple jog or walk, yard work, and even dancing!""",1576587445,Airport,2.0,3.0,1.0,2.0,4.0,3.0,1.0,3.0,0.0,1,200,101,54,45
244.9130004036997,5.0,14.0,rating,7.0,2.108,19.0,1576595340.0,16727,1.2231875584241176,12.369999885559098,4.21000003814697,1.39999997615814,5.389999866485599,0.0,59,33,248,879,3637,56,1764,1088,56.0,-0.2789721578170139,positive,nonsocial,113.0,"""Aerobic workouts help maintain strong lungs and a healthy heart. They can be done by a simple jog or walk, yard work, and even dancing!""",1576587445,Airport,2.0,3.0,1.0,2.0,4.0,3.0,1.0,3.0,0.0,1,200,101,54,45
250.04209868489846,3.0,15.0,iti,6.0,1.092,64.0,1580489580.0,28977,2.719238327406141,21.409999847412102,15.25,2.5199999809265097,3.6199998855590803,0.0,201,65,229,557,4387,44,1764,2126,57.0,0.47939875663700987,negative,social,411.0,"""Being sedentary can shrink the brain's memory areas with age. When you go out with friends or family, visit places where you can walk around, like a mall, park, or museum, to stimulate your brain.""",1580480570,School,4.0,2.0,1.0,2.0,4.0,4.0,1.0,3.0,10.0,1,342,188,72,82
253.04563731907547,8.0,15.0,message,6.0,1.092,64.0,1580489580.0,28977,2.719238327406141,21.409999847412102,15.25,2.5199999809265097,3.6199998855590803,0.0,201,65,229,557,4387,44,1764,2126,57.0,0.47939875663700987,negative,social,411.0,"""Being sedentary can shrink the brain's memory areas with age. When you go out with friends or family, visit places where you can walk around, like a mall, park, or museum, to stimulate your brain.""",1580480570,School,4.0,2.0,1.0,2.0,4.0,4.0,1.0,3.0,10.0,1,342,188,72,82
261.06170429197664,5.0,15.0,rating,6.0,1.092,64.0,1580489580.0,28977,2.719238327406141,21.409999847412102,15.25,2.5199999809265097,3.6199998855590803,0.0,201,65,229,557,4387,44,1764,2126,57.0,0.47939875663700987,negative,social,411.0,"""Being sedentary can shrink the brain's memory areas with age. When you go out with friends or family, visit places where you can walk around, like a mall, park, or museum, to stimulate your brain.""",1580480570,School,4.0,2.0,1.0,2.0,4.0,4.0,1.0,3.0,10.0,1,342,188,72,82
266.1200772158918,5.0,16.0,iti,6.0,0.841,66.0,1580658840.0,18237,1.407598714437412,13.470000267028801,9.19999980926514,0.38999998569488503,3.85999989509583,0.0,125,10,224,711,3526,31,1764,1365,58.0,1.2377696710910338,positive,nonsocial,116.0,"""Regular physical activity will give you higher energy levels throughout the day.""",1580650190,Home,5.0,2.0,1.0,4.0,4.0,5.0,2.0,1.0,8.0,1,321,196,53,72
271.12754592355486,8.0,16.0,message,6.0,0.841,66.0,1580658840.0,18237,1.407598714437412,13.470000267028801,9.19999980926514,0.38999998569488503,3.85999989509583,0.0,125,10,224,711,3526,31,1764,1365,58.0,1.2377696710910338,positive,nonsocial,116.0,"""Regular physical activity will give you higher energy levels throughout the day.""",1580650190,Home,5.0,2.0,1.0,4.0,4.0,5.0,2.0,1.0,8.0,1,321,196,53,72
279.1436451125119,5.0,16.0,rating,6.0,0.841,66.0,1580658840.0,18237,1.407598714437412,13.470000267028801,9.19999980926514,0.38999998569488503,3.85999989509583,0.0,125,10,224,711,3526,31,1764,1365,58.0,1.2377696710910338,positive,nonsocial,116.0,"""Regular physical activity will give you higher energy levels throughout the day.""",1580650190,Home,5.0,2.0,1.0,4.0,4.0,5.0,2.0,1.0,8.0,1,321,196,53,72
284.22020499673823,4.0,17.0,iti,6.0,1.9080000000000001,32.0,1577725800.0,6578,-0.016275237853315493,4.84999990463257,0.0,0.0,4.84000015258789,0.0,0,0,290,670,2612,5,1764,518,56.0,-0.2789721578170139,negative,nonsocial,202.0,"""Physical inactivity can increase the amount of aches and pains you feel as you age.""",1577712398,Coffee shop,4.0,2.0,2.0,1.0,3.0,4.0,1.0,3.0,6.0,1,423,246,95,82
288.22623823686445,8.0,17.0,message,6.0,1.9080000000000001,32.0,1577725800.0,6578,-0.016275237853315493,4.84999990463257,0.0,0.0,4.84000015258789,0.0,0,0,290,670,2612,5,1764,518,56.0,-0.2789721578170139,negative,nonsocial,202.0,"""Physical inactivity can increase the amount of aches and pains you feel as you age.""",1577712398,Coffee shop,4.0,2.0,2.0,1.0,3.0,4.0,1.0,3.0,6.0,1,423,246,95,82
296.24230064819864,5.0,17.0,rating,6.0,1.9080000000000001,32.0,1577725800.0,6578,-0.016275237853315493,4.84999990463257,0.0,0.0,4.84000015258789,0.0,0,0,290,670,2612,5,1764,518,56.0,-0.2789721578170139,negative,nonsocial,202.0,"""Physical inactivity can increase the amount of aches and pains you feel as you age.""",1577712398,Coffee shop,4.0,2.0,2.0,1.0,3.0,4.0,1.0,3.0,6.0,1,423,246,95,82
301.3594784192392,5.0,18.0,iti,8.0,1.8419999999999999,57.0,1579878780.0,7722,0.12343758498059755,5.71000003814697,0.280000001192093,0.14000000059604598,5.269999980926509,0.0,4,4,274,727,2699,21,1764,593,57.0,0.47939875663700987,positive,social,307.0,"""Exercise is good for your mind and can also help you stick around longer for the important people in your life. Who are three people you want to stay around to support?""",1579867356,Home,3.0,3.0,3.0,1.0,3.0,3.0,2.0,3.0,0.0,1,400,158,90,152
306.37480071662134,8.0,18.0,message,8.0,1.8419999999999999,57.0,1579878780.0,7722,0.12343758498059755,5.71000003814697,0.280000001192093,0.14000000059604598,5.269999980926509,0.0,4,4,274,727,2699,21,1764,593,57.0,0.47939875663700987,positive,social,307.0,"""Exercise is good for your mind and can also help you stick around longer for the important people in your life. Who are three people you want to stay around to support?""",1579867356,Home,3.0,3.0,3.0,1.0,3.0,3.0,2.0,3.0,0.0,1,400,158,90,152
314.39086768952257,5.0,18.0,rating,8.0,1.8419999999999999,57.0,1579878780.0,7722,0.12343758498059755,5.71000003814697,0.280000001192093,0.14000000059604598,5.269999980926509,0.0,4,4,274,727,2699,21,1764,593,57.0,0.47939875663700987,positive,social,307.0,"""Exercise is good for your mind and can also help you stick around longer for the important people in your life. Who are three people you want to stay around to support?""",1579867356,Home,3.0,3.0,3.0,1.0,3.0,3.0,2.0,3.0,0.0,1,400,158,90,152
319.50946211164415,6.0,19.0,iti,9.0,1.4080000000000001,3.0,1575219060.0,6603,-0.013222073018658303,4.82999992370605,0.219999998807907,0.259999990463257,4.32999992370605,0.0,4,13,248,819,2711,5,1764,665,55.0,-1.0373430722710377,negative,social,420.0,"""Physical inactivity can lead to low bone density and osteoporosis. Being confined to a wheelchair will make it harder for you to get around and spend time with loved ones.""",1575214635,Home,5.0,2.0,1.0,3.0,4.0,4.0,1.0,3.0,0.0,1,292,165,83,44
325.52329277721583,8.0,19.0,message,9.0,1.4080000000000001,3.0,1575219060.0,6603,-0.013222073018658303,4.82999992370605,0.219999998807907,0.259999990463257,4.32999992370605,0.0,4,13,248,819,2711,5,1764,665,55.0,-1.0373430722710377,negative,social,420.0,"""Physical inactivity can lead to low bone density and osteoporosis. Being confined to a wheelchair will make it harder for you to get around and spend time with loved ones.""",1575214635,Home,5.0,2.0,1.0,3.0,4.0,4.0,1.0,3.0,0.0,1,292,165,83,44
333.5393577544309,5.0,19.0,rating,9.0,1.4080000000000001,3.0,1575219060.0,6603,-0.013222073018658303,4.82999992370605,0.219999998807907,0.259999990463257,4.32999992370605,0.0,4,13,248,819,2711,5,1764,665,55.0,-1.0373430722710377,negative,social,420.0,"""Physical inactivity can lead to low bone density and osteoporosis. Being confined to a wheelchair will make it harder for you to get around and spend time with loved ones.""",1575214635,Home,5.0,2.0,1.0,3.0,4.0,4.0,1.0,3.0,0.0,1,292,165,83,44
338.63296591826656,6.0,20.0,iti,4.0,0.575,68.0,1580835480.0,6557,-0.018839896314427534,4.84000015258789,0.6700000166893,0.180000007152557,3.97000002861023,0.0,13,9,227,778,2645,22,1764,555,54.0,-1.7957139867250616,positive,nonsocial,118.0,"""Regular physical activity can reduce your risk of injury by building and maintaining healthy bones, muscles, and joints.""",1580819174,Home,3.0,3.0,2.0,1.0,3.0,3.0,1.0,3.0,4.0,1,361,228,70,63
344.63844777920167,8.0,20.0,message,4.0,0.575,68.0,1580835480.0,6557,-0.018839896314427534,4.84000015258789,0.6700000166893,0.180000007152557,3.97000002861023,0.0,13,9,227,778,2645,22,1764,555,54.0,-1.7957139867250616,positive,nonsocial,118.0,"""Regular physical activity can reduce your risk of injury by building and maintaining healthy bones, muscles, and joints.""",1580819174,Home,3.0,3.0,2.0,1.0,3.0,3.0,1.0,3.0,4.0,1,361,228,70,63
352.6545127564168,5.0,20.0,rating,4.0,0.575,68.0,1580835480.0,6557,-0.018839896314427534,4.84000015258789,0.6700000166893,0.180000007152557,3.97000002861023,0.0,13,9,227,778,2645,22,1764,555,54.0,-1.7957139867250616,positive,nonsocial,118.0,"""Regular physical activity can reduce your risk of injury by building and maintaining healthy bones, muscles, and joints.""",1580819174,Home,3.0,3.0,2.0,1.0,3.0,3.0,1.0,3.0,4.0,1,361,228,70,63
357.75191984874255,6.0,21.0,iti,6.0,1.7069999999999999,76.0,1581527160.0,9676,0.36207294845740357,7.130000114440921,2.7100000381469704,0.44999998807907104,3.95000004768372,0.0,41,12,199,702,2834,20,1764,783,55.0,-1.0373430722710377,negative,nonsocial,216.0,"""You only get one body. If you don't maintain it with exercise, you will live a shorter life and get sick more often as you age.""",1581514563,School,4.0,2.0,1.0,2.0,3.0,4.0,1.0,2.0,7.0,1,426,265,94,67
363.75362245293945,8.0,21.0,message,6.0,1.7069999999999999,76.0,1581527160.0,9676,0.36207294845740357,7.130000114440921,2.7100000381469704,0.44999998807907104,3.95000004768372,0.0,41,12,199,702,2834,20,1764,783,55.0,-1.0373430722710377,negative,nonsocial,216.0,"""You only get one body. If you don't maintain it with exercise, you will live a shorter life and get sick more often as you age.""",1581514563,School,4.0,2.0,1.0,2.0,3.0,4.0,1.0,2.0,7.0,1,426,265,94,67
371.7696814430965,5.0,21.0,rating,6.0,1.7069999999999999,76.0,1581527160.0,9676,0.36207294845740357,7.130000114440921,2.7100000381469704,0.44999998807907104,3.95000004768372,0.0,41,12,199,702,2834,20,1764,783,55.0,-1.0373430722710377,negative,nonsocial,216.0,"""You only get one body. If you don't maintain it with exercise, you will live a shorter life and get sick more often as you age.""",1581514563,School,4.0,2.0,1.0,2.0,3.0,4.0,1.0,2.0,7.0,1,426,265,94,67
376.87311151202454,4.0,22.0,iti,2.0,0.907,28.0,1577382780.0,23523,2.0531598870773284,17.370000839233402,15.460000038147,0.569999992847443,1.32000005245209,0.0,217,22,81,643,3894,11,1764,1834,53.0,-2.554084901179085,negative,nonsocial,208.0,"""Inadequate levels of physical activity increase the risk of hypertension, coronary heart disease, stroke, diabetes, cancer, and depression.""",1577365866,Home,4.0,2.0,1.0,1.0,4.0,3.0,1.0,2.0,8.0,1,404,286,66,52
380.88559138411796,8.0,22.0,message,2.0,0.907,28.0,1577382780.0,23523,2.0531598870773284,17.370000839233402,15.460000038147,0.569999992847443,1.32000005245209,0.0,217,22,81,643,3894,11,1764,1834,53.0,-2.554084901179085,negative,nonsocial,208.0,"""Inadequate levels of physical activity increase the risk of hypertension, coronary heart disease, stroke, diabetes, cancer, and depression.""",1577365866,Home,4.0,2.0,1.0,1.0,4.0,3.0,1.0,2.0,8.0,1,404,286,66,52
388.9016557911381,5.0,22.0,rating,2.0,0.907,28.0,1577382780.0,23523,2.0531598870773284,17.370000839233402,15.460000038147,0.569999992847443,1.32000005245209,0.0,217,22,81,643,3894,11,1764,1834,53.0,-2.554084901179085,negative,nonsocial,208.0,"""Inadequate levels of physical activity increase the risk of hypertension, coronary heart disease, stroke, diabetes, cancer, and depression.""",1577365866,Home,4.0,2.0,1.0,1.0,4.0,3.0,1.0,2.0,8.0,1,404,286,66,52
394.02197591037833,4.0,23.0,iti,7.0,0.9079999999999999,23.0,1576950780.0,19442,1.5547612594678886,14.3400001525879,7.630000114440921,0.270000010728836,6.40999984741211,0.0,106,15,309,685,3800,13,1764,1635,57.0,0.47939875663700987,positive,social,314.0,"""Invite friends or family to join you on a walk. Even short walks can help relieve stress and strengthen bones and muscles. Plus it's hard to break a commitment to someone else.""",1576940490,Home,4.0,2.0,1.0,1.0,3.0,3.0,1.0,2.0,7.0,1,283,135,63,85
398.03424281439214,8.0,23.0,message,7.0,0.9079999999999999,23.0,1576950780.0,19442,1.5547612594678886,14.3400001525879,7.630000114440921,0.270000010728836,6.40999984741211,0.0,106,15,309,685,3800,13,1764,1635,57.0,0.47939875663700987,positive,social,314.0,"""Invite friends or family to join you on a walk. Even short walks can help relieve stress and strengthen bones and muscles. Plus it's hard to break a commitment to someone else.""",1576940490,Home,4.0,2.0,1.0,1.0,3.0,3.0,1.0,2.0,7.0,1,283,135,63,85
406.05030380024255,5.0,23.0,rating,7.0,0.9079999999999999,23.0,1576950780.0,19442,1.5547612594678886,14.3400001525879,7.630000114440921,0.270000010728836,6.40999984741211,0.0,106,15,309,685,3800,13,1764,1635,57.0,0.47939875663700987,positive,social,314.0,"""Invite friends or family to join you on a walk. Even short walks can help relieve stress and strengthen bones and muscles. Plus it's hard to break a commitment to someone else.""",1576940490,Home,4.0,2.0,1.0,1.0,3.0,3.0,1.0,2.0,7.0,1,283,135,63,85
411.1929328241095,4.0,24.0,iti,3.0,1.4080000000000001,7.0,1575558360.0,9625,0.3558444921947029,7.099999904632571,0.479999989271164,0.610000014305115,5.92999982833862,0.0,11,25,378,614,3219,25,1764,969,57.0,0.47939875663700987,positive,nonsocial,103.0,"""People sometimes think that an active lifestyle is hard to achieve. Remember that health benefits can come from as little as one hour per week of physical activity. That's less than ten minutes per day to extend your life!""",1575543937,Campus,3.0,2.0,1.0,2.0,3.0,3.0,1.0,1.0,0.0,1,377,207,84,86
415.1995445277207,8.0,24.0,message,3.0,1.4080000000000001,7.0,1575558360.0,9625,0.3558444921947029,7.099999904632571,0.479999989271164,0.610000014305115,5.92999982833862,0.0,11,25,378,614,3219,25,1764,969,57.0,0.47939875663700987,positive,nonsocial,103.0,"""People sometimes think that an active lifestyle is hard to achieve. Remember that health benefits can come from as little as one hour per week of physical activity. That's less than ten minutes per day to extend your life!""",1575543937,Campus,3.0,2.0,1.0,2.0,3.0,3.0,1.0,1.0,0.0,1,377,207,84,86
423.21561264101183,5.0,24.0,rating,3.0,1.4080000000000001,7.0,1575558360.0,9625,0.3558444921947029,7.099999904632571,0.479999989271164,0.610000014305115,5.92999982833862,0.0,11,25,378,614,3219,25,1764,969,57.0,0.47939875663700987,positive,nonsocial,103.0,"""People sometimes think that an active lifestyle is hard to achieve. Remember that health benefits can come from as little as one hour per week of physical activity. That's less than ten minutes per day to extend your life!""",1575543937,Campus,3.0,2.0,1.0,2.0,3.0,3.0,1.0,1.0,0.0,1,377,207,84,86
428.31118427354517,4.0,25.0,iti,7.0,1.508,14.0,1576165200.0,6989,0.03391879202844872,5.15000009536743,0.419999986886978,0.479999989271164,4.23999977111816,0.0,6,15,241,772,2614,15,1764,535,57.0,0.47939875663700987,positive,nonsocial,106.0,"""Regular physical activity will help you live independently for a longer time without needing a wheelchair or other assistance.""",1576153174,Restaurant,3.0,3.0,2.0,3.0,3.0,3.0,1.0,2.0,0.0,1,364,218,78,68
432.31486488643714,8.0,25.0,message,7.0,1.508,14.0,1576165200.0,6989,0.03391879202844872,5.15000009536743,0.419999986886978,0.479999989271164,4.23999977111816,0.0,6,15,241,772,2614,15,1764,535,57.0,0.47939875663700987,positive,nonsocial,106.0,"""Regular physical activity will help you live independently for a longer time without needing a wheelchair or other assistance.""",1576153174,Restaurant,3.0,3.0,2.0,3.0,3.0,3.0,1.0,2.0,0.0,1,364,218,78,68
440.33093100404955,5.0,25.0,rating,7.0,1.508,14.0,1576165200.0,6989,0.03391879202844872,5.15000009536743,0.419999986886978,0.479999989271164,4.23999977111816,0.0,6,15,241,772,2614,15,1764,535,57.0,0.47939875663700987,positive,nonsocial,106.0,"""Regular physical activity will help you live independently for a longer time without needing a wheelchair or other assistance.""",1576153174,Restaurant,3.0,3.0,2.0,3.0,3.0,3.0,1.0,2.0,0.0,1,364,218,78,68
445.4465894887835,3.0,26.0,iti,4.0,0.508,72.0,1581175440.0,26612,2.4304089340475707,19.6499996185303,14.8400001525879,1.60000002384186,3.1800000667572004,0.0,201,42,198,393,4348,36,1764,2118,56.0,-0.2789721578170139,negative,social,416.0,"""People who are not physically active at least twice a week have a higher risk of dementia. Think about ways people close to you can help you exercise, and ask them!""",1581157830,Home,4.0,2.0,2.0,2.0,3.0,4.0,2.0,3.0,10.0,1,537,300,115,122
448.44692590421613,8.0,26.0,message,4.0,0.508,72.0,1581175440.0,26612,2.4304089340475707,19.6499996185303,14.8400001525879,1.60000002384186,3.1800000667572004,0.0,201,42,198,393,4348,36,1764,2118,56.0,-0.2789721578170139,negative,social,416.0,"""People who are not physically active at least twice a week have a higher risk of dementia. Think about ways people close to you can help you exercise, and ask them!""",1581157830,Home,4.0,2.0,2.0,2.0,3.0,4.0,2.0,3.0,10.0,1,537,300,115,122
456.4629871751604,5.0,26.0,rating,4.0,0.508,72.0,1581175440.0,26612,2.4304089340475707,19.6499996185303,14.8400001525879,1.60000002384186,3.1800000667572004,0.0,201,42,198,393,4348,36,1764,2118,56.0,-0.2789721578170139,negative,social,416.0,"""People who are not physically active at least twice a week have a higher risk of dementia. Think about ways people close to you can help you exercise, and ask them!""",1581157830,Home,4.0,2.0,2.0,2.0,3.0,4.0,2.0,3.0,10.0,1,537,300,115,122
461.57070853651385,6.0,27.0,iti,8.0,1.675,35.0,1577983080.0,12647,0.724911057408064,9.329999923706051,6.03999996185303,0.0,3.25999999046326,0.0,90,0,196,681,3157,19,1764,1074,54.0,-1.7957139867250616,negative,social,413.0,"""Physical inactivity will make you lose independence. A lack of freedom and autonomy can render you unable to contribute to your family and community.""",1577968017,Home,3.0,2.0,2.0,2.0,3.0,3.0,1.0,3.0,8.0,1,408,203,75,130
467.5787502907988,8.0,27.0,message,8.0,1.675,35.0,1577983080.0,12647,0.724911057408064,9.329999923706051,6.03999996185303,0.0,3.25999999046326,0.0,90,0,196,681,3157,19,1764,1074,54.0,-1.7957139867250616,negative,social,413.0,"""Physical inactivity will make you lose independence. A lack of freedom and autonomy can render you unable to contribute to your family and community.""",1577968017,Home,3.0,2.0,2.0,2.0,3.0,3.0,1.0,3.0,8.0,1,408,203,75,130
475.5948101362519,5.0,27.0,rating,8.0,1.675,35.0,1577983080.0,12647,0.724911057408064,9.329999923706051,6.03999996185303,0.0,3.25999999046326,0.0,90,0,196,681,3157,19,1764,1074,54.0,-1.7957139867250616,negative,social,413.0,"""Physical inactivity will make you lose independence. A lack of freedom and autonomy can render you unable to contribute to your family and community.""",1577968017,Home,3.0,2.0,2.0,2.0,3.0,3.0,1.0,3.0,8.0,1,408,203,75,130
480.66716340210405,3.0,28.0,iti,4.0,0.708,15.0,1576249680.0,19978,1.6202211135229387,14.729999542236301,9.0600004196167,0.639999985694885,5.0,0.0,125,17,327,544,3925,19,1764,1639,56.0,-0.2789721578170139,positive,nonsocial,115.0,"""Being active improves your physical strength, morale, and self-esteem.""",1576238472,Sidewalk,3.0,2.0,2.0,3.0,3.0,3.0,2.0,2.0,0.0,1,367,181,86,100
483.677475675453,8.0,28.0,message,4.0,0.708,15.0,1576249680.0,19978,1.6202211135229387,14.729999542236301,9.0600004196167,0.639999985694885,5.0,0.0,125,17,327,544,3925,19,1764,1639,56.0,-0.2789721578170139,positive,nonsocial,115.0,"""Being active improves your physical strength, morale, and self-esteem.""",1576238472,Sidewalk,3.0,2.0,2.0,3.0,3.0,3.0,2.0,2.0,0.0,1,367,181,86,100
491.69354207815917,5.0,28.0,rating,4.0,0.708,15.0,1576249680.0,19978,1.6202211135229387,14.729999542236301,9.0600004196167,0.639999985694885,5.0,0.0,125,17,327,544,3925,19,1764,1639,56.0,-0.2789721578170139,positive,nonsocial,115.0,"""Being active improves your physical strength, morale, and self-esteem.""",1576238472,Sidewalk,3.0,2.0,2.0,3.0,3.0,3.0,2.0,2.0,0.0,1,367,181,86,100
496.8119201110312,2.0,29.0,iti,4.0,1.475,65.0,1580579040.0,2940,-0.4605717845926299,2.17000007629394,0.0,0.0,2.16000008583069,0.0,0,0,149,630,2222,7,1764,244,58.0,1.2377696710910338,positive,nonsocial,110.0,"""To exercise or not to exercise? The answer is simple! Regular exercise helps every part of your body stay healthy, including your muscles, bones, brain, and even your skin.""",1580562145,Home,5.0,2.0,1.0,1.0,4.0,4.0,2.0,2.0,4.0,2,610,224,120,130
498.8263018707002,8.0,29.0,message,4.0,1.475,65.0,1580579040.0,2940,-0.4605717845926299,2.17000007629394,0.0,0.0,2.16000008583069,0.0,0,0,149,630,2222,7,1764,244,58.0,1.2377696710910338,positive,nonsocial,110.0,"""To exercise or not to exercise? The answer is simple! Regular exercise helps every part of your body stay healthy, including your muscles, bones, brain, and even your skin.""",1580562145,Home,5.0,2.0,1.0,1.0,4.0,4.0,2.0,2.0,4.0,2,610,224,120,130
506.84234632086736,5.0,29.0,rating,4.0,1.475,65.0,1580579040.0,2940,-0.4605717845926299,2.17000007629394,0.0,0.0,2.16000008583069,0.0,0,0,149,630,2222,7,1764,244,58.0,1.2377696710910338,positive,nonsocial,110.0,"""To exercise or not to exercise? The answer is simple! Regular exercise helps every part of your body stay healthy, including your muscles, bones, brain, and even your skin.""",1580562145,Home,5.0,2.0,1.0,1.0,4.0,4.0,2.0,2.0,4.0,2,610,224,120,130
511.94129493711813,4.0,30.0,iti,6.0,2.608,21.0,1576775040.0,14746,0.9812547769258818,10.869999885559098,4.48999977111816,0.8000000119209291,5.53000020980835,0.0,77,21,276,770,3456,30,1764,1320,57.0,0.47939875663700987,negative,social,419.0,"""A lack of activity will decrease your stamina and weaken muscles. Eventually, you'll miss social outings with friends and family.""",1576757939,Home,4.0,2.0,2.0,3.0,4.0,3.0,1.0,2.0,6.0,2,317,182,31,7
515.941592294148,8.0,30.0,message,6.0,2.608,21.0,1576775040.0,14746,0.9812547769258818,10.869999885559098,4.48999977111816,0.8000000119209291,5.53000020980835,0.0,77,21,276,770,3456,30,1764,1320,57.0,0.47939875663700987,negative,social,419.0,"""A lack of activity will decrease your stamina and weaken muscles. Eventually, you'll miss social outings with friends and family.""",1576757939,Home,4.0,2.0,2.0,3.0,4.0,3.0,1.0,2.0,6.0,2,317,182,31,7
523.957662118024,5.0,30.0,rating,6.0,2.608,21.0,1576775040.0,14746,0.9812547769258818,10.869999885559098,4.48999977111816,0.8000000119209291,5.53000020980835,0.0,77,21,276,770,3456,30,1764,1320,57.0,0.47939875663700987,negative,social,419.0,"""A lack of activity will decrease your stamina and weaken muscles. Eventually, you'll miss social outings with friends and family.""",1576757939,Home,4.0,2.0,2.0,3.0,4.0,3.0,1.0,2.0,6.0,2,317,182,31,7
529.0660893815875,2.0,31.0,iti,7.0,0.9079999999999999,6.0,1575472080.0,24831,2.2129014712265924,18.3199996948242,11.9899997711182,2.14000010490417,4.15999984741211,0.0,167,55,256,579,4156,45,1764,1896,57.0,0.47939875663700987,negative,nonsocial,219.0,"""A lack of exercise robs the body of its essential ingredients! You need exercise to maintain energy levels, to sleep well, and to live a long life.""",1575454201,Home,3.0,2.0,1.0,3.0,4.0,4.0,1.0,2.0,4.0,1,348,185,73,90
531.0737322840214,8.0,31.0,message,7.0,0.9079999999999999,6.0,1575472080.0,24831,2.2129014712265924,18.3199996948242,11.9899997711182,2.14000010490417,4.15999984741211,0.0,167,55,256,579,4156,45,1764,1896,57.0,0.47939875663700987,negative,nonsocial,219.0,"""A lack of exercise robs the body of its essential ingredients! You need exercise to maintain energy levels, to sleep well, and to live a long life.""",1575454201,Home,3.0,2.0,1.0,3.0,4.0,4.0,1.0,2.0,4.0,1,348,185,73,90
539.0897978314315,5.0,31.0,rating,7.0,0.9079999999999999,6.0,1575472080.0,24831,2.2129014712265924,18.3199996948242,11.9899997711182,2.14000010490417,4.15999984741211,0.0,167,55,256,579,4156,45,1764,1896,57.0,0.47939875663700987,negative,nonsocial,219.0,"""A lack of exercise robs the body of its essential ingredients! You need exercise to maintain energy levels, to sleep well, and to live a long life.""",1575454201,Home,3.0,2.0,1.0,3.0,4.0,4.0,1.0,2.0,4.0,1,348,185,73,90
544.203987777284,3.0,32.0,iti,5.0,0.0,45.0,1578850560.0,23492,2.0493739626823535,17.3500003814697,12.7399997711182,0.9200000166893001,3.6800000667572004,0.0,171,34,234,450,4116,10,1764,1928,57.0,0.47939875663700987,negative,social,408.0,"""Every choice you make today can affect your health tomorrow; don't let a sedentary lifestyle shorten your life. Think of all the people you would leave behind.""",1578839487,Home,4.0,3.0,1.0,2.0,2.0,3.0,1.0,2.0,10.0,1,471,280,93,98
547.2057394183066,8.0,32.0,message,5.0,0.0,45.0,1578850560.0,23492,2.0493739626823535,17.3500003814697,12.7399997711182,0.9200000166893001,3.6800000667572004,0.0,171,34,234,450,4116,10,1764,1928,57.0,0.47939875663700987,negative,social,408.0,"""Every choice you make today can affect your health tomorrow; don't let a sedentary lifestyle shorten your life. Think of all the people you would leave behind.""",1578839487,Home,4.0,3.0,1.0,2.0,2.0,3.0,1.0,2.0,10.0,1,471,280,93,98
555.2218568535245,5.0,32.0,rating,5.0,0.0,45.0,1578850560.0,23492,2.0493739626823535,17.3500003814697,12.7399997711182,0.9200000166893001,3.6800000667572004,0.0,171,34,234,450,4116,10,1764,1928,57.0,0.47939875663700987,negative,social,408.0,"""Every choice you make today can affect your health tomorrow; don't let a sedentary lifestyle shorten your life. Think of all the people you would leave behind.""",1578839487,Home,4.0,3.0,1.0,2.0,2.0,3.0,1.0,2.0,10.0,1,471,280,93,98
560.3086534601754,4.0,33.0,iti,4.0,2.3080000000000003,9.0,1575737760.0,22139,1.8841366818307064,16.3400001525879,8.590000152587889,1.60000002384186,5.650000095367429,0.0,139,63,324,558,4233,17,1764,1853,58.0,1.2377696710910338,negative,nonsocial,212.0,"""Sitting in front of a computer for a long time can result in high blood pressure, damaging your health.""",1575724953,Gym,2.0,3.0,4.0,1.0,2.0,1.0,2.0,3.0,10.0,1,318,161,70,87
564.3210700405543,8.0,33.0,message,4.0,2.3080000000000003,9.0,1575737760.0,22139,1.8841366818307064,16.3400001525879,8.590000152587889,1.60000002384186,5.650000095367429,0.0,139,63,324,558,4233,17,1764,1853,58.0,1.2377696710910338,negative,nonsocial,212.0,"""Sitting in front of a computer for a long time can result in high blood pressure, damaging your health.""",1575724953,Gym,2.0,3.0,4.0,1.0,2.0,1.0,2.0,3.0,10.0,1,318,161,70,87
572.3371675189193,5.0,33.0,rating,4.0,2.3080000000000003,9.0,1575737760.0,22139,1.8841366818307064,16.3400001525879,8.590000152587889,1.60000002384186,5.650000095367429,0.0,139,63,324,558,4233,17,1764,1853,58.0,1.2377696710910338,negative,nonsocial,212.0,"""Sitting in front of a computer for a long time can result in high blood pressure, damaging your health.""",1575724953,Gym,2.0,3.0,4.0,1.0,2.0,1.0,2.0,3.0,10.0,1,318,161,70,87
577.4122913654137,2.0,34.0,iti,7.0,1.074,18.0,1576511460.0,4844,-0.22804275078513822,3.54999995231628,0.0,0.0,3.52999997138977,0.0,0,0,193,749,2366,6,1764,381,57.0,0.47939875663700987,negative,nonsocial,213.0,"""Weak muscles make it difficult for you to get around and do the things you enjoy.""",1576495442,Home,4.0,2.0,2.0,1.0,4.0,3.0,1.0,2.0,7.0,1,443,204,85,154
579.4199094643336,8.0,34.0,message,7.0,1.074,18.0,1576511460.0,4844,-0.22804275078513822,3.54999995231628,0.0,0.0,3.52999997138977,0.0,0,0,193,749,2366,6,1764,381,57.0,0.47939875663700987,negative,nonsocial,213.0,"""Weak muscles make it difficult for you to get around and do the things you enjoy.""",1576495442,Home,4.0,2.0,2.0,1.0,4.0,3.0,1.0,2.0,7.0,1,443,204,85,154
587.4359447913812,5.0,34.0,rating,7.0,1.074,18.0,1576511460.0,4844,-0.22804275078513822,3.54999995231628,0.0,0.0,3.52999997138977,0.0,0,0,193,749,2366,6,1764,381,57.0,0.47939875663700987,negative,nonsocial,213.0,"""Weak muscles make it difficult for you to get around and do the things you enjoy.""",1576495442,Home,4.0,2.0,2.0,1.0,4.0,3.0,1.0,2.0,7.0,1,443,204,85,154
592.5371023455591,5.0,35.0,iti,3.0,0.875,5.0,1575395640.0,4524,-0.26712326066875025,3.33999991416931,0.129999995231628,0.219999998807907,2.97000002861023,0.0,3,10,258,1169,2631,6,1764,481,56.0,-0.2789721578170139,positive,nonsocial,117.0,"""Being active at any age has overall health benefits and can lengthen your life. It is never too late or too early to start being active.""",1575377768,Home,3.0,3.0,1.0,2.0,4.0,3.0,1.0,2.0,0.0,1,0,0,0,0
597.5518131081117,8.0,35.0,message,3.0,0.875,5.0,1575395640.0,4524,-0.26712326066875025,3.33999991416931,0.129999995231628,0.219999998807907,2.97000002861023,0.0,3,10,258,1169,2631,6,1764,481,56.0,-0.2789721578170139,positive,nonsocial,117.0,"""Being active at any age has overall health benefits and can lengthen your life. It is never too late or too early to start being active.""",1575377768,Home,3.0,3.0,1.0,2.0,4.0,3.0,1.0,2.0,0.0,1,0,0,0,0
605.5678629751419,5.0,35.0,rating,3.0,0.875,5.0,1575395640.0,4524,-0.26712326066875025,3.33999991416931,0.129999995231628,0.219999998807907,2.97000002861023,0.0,3,10,258,1169,2631,6,1764,481,56.0,-0.2789721578170139,positive,nonsocial,117.0,"""Being active at any age has overall health benefits and can lengthen your life. It is never too late or too early to start being active.""",1575377768,Home,3.0,3.0,1.0,2.0,4.0,3.0,1.0,2.0,0.0,1,0,0,0,0
610.6891923406803,6.0,36.0,iti,4.0,1.208,73.0,1581267240.0,3462,-0.39682170284498774,2.5499999523162797,0.219999998807907,0.319999992847443,1.5199999809265101,0.0,5,9,97,840,2211,1,1764,242,57.0,0.47939875663700987,positive,social,306.0,"""Instead of watching TV with family or friends, why not take a walk or jog? Spending less time in front of the TV can strengthen your heart and help you live longer and healthier.""",1581253555,Home,4.0,2.0,3.0,2.0,3.0,3.0,2.0,2.0,7.0,1,432,224,95,113
616.7003014624353,8.0,36.0,message,4.0,1.208,73.0,1581267240.0,3462,-0.39682170284498774,2.5499999523162797,0.219999998807907,0.319999992847443,1.5199999809265101,0.0,5,9,97,840,2211,1,1764,242,57.0,0.47939875663700987,positive,social,306.0,"""Instead of watching TV with family or friends, why not take a walk or jog? Spending less time in front of the TV can strengthen your heart and help you live longer and healthier.""",1581253555,Home,4.0,2.0,3.0,2.0,3.0,3.0,2.0,2.0,7.0,1,432,224,95,113
624.7163193985108,5.0,36.0,rating,4.0,1.208,73.0,1581267240.0,3462,-0.39682170284498774,2.5499999523162797,0.219999998807907,0.319999992847443,1.5199999809265101,0.0,5,9,97,840,2211,1,1764,242,57.0,0.47939875663700987,positive,social,306.0,"""Instead of watching TV with family or friends, why not take a walk or jog? Spending less time in front of the TV can strengthen your heart and help you live longer and healthier.""",1581253555,Home,4.0,2.0,3.0,2.0,3.0,3.0,2.0,2.0,7.0,1,432,224,95,113
629.7825082792407,6.0,37.0,iti,6.0,0.841,4.0,1575305760.0,27112,2.4914722307407144,20.0100002288818,13.869999885559098,1.7599999904632602,4.3600001335144,0.0,199,58,229,510,4481,32,1764,2229,55.0,-1.0373430722710377,negative,nonsocial,210.0,"""Being sedentary can shrink the brain's memory areas over time.""",1575288015,Class,3.0,2.0,2.0,3.0,4.0,3.0,1.0,3.0,7.0,1,399,209,71,119
635.7987893606041,8.0,37.0,message,6.0,0.841,4.0,1575305760.0,27112,2.4914722307407144,20.0100002288818,13.869999885559098,1.7599999904632602,4.3600001335144,0.0,199,58,229,510,4481,32,1764,2229,55.0,-1.0373430722710377,negative,nonsocial,210.0,"""Being sedentary can shrink the brain's memory areas over time.""",1575288015,Class,3.0,2.0,2.0,3.0,4.0,3.0,1.0,3.0,7.0,1,399,209,71,119
643.8148318150925,5.0,37.0,rating,6.0,0.841,4.0,1575305760.0,27112,2.4914722307407144,20.0100002288818,13.869999885559098,1.7599999904632602,4.3600001335144,0.0,199,58,229,510,4481,32,1764,2229,55.0,-1.0373430722710377,negative,nonsocial,210.0,"""Being sedentary can shrink the brain's memory areas over time.""",1575288015,Class,3.0,2.0,2.0,3.0,4.0,3.0,1.0,3.0,7.0,1,399,209,71,119
648.8771704497267,5.0,38.0,iti,8.0,1.1079999999999999,49.0,1579190580.0,3377,-0.40720246328282217,2.49000000953674,0.319999992847443,0.119999997317791,2.03999996185303,0.0,6,4,128,927,2243,15,1764,290,56.0,-0.2789721578170139,negative,nonsocial,220.0,"""Inactive people tend to die sooner than active people.""",1579182046,Work,4.0,2.0,1.0,1.0,3.0,3.0,1.0,3.0,0.0,1,328,166,63,99
653.8806714509919,8.0,38.0,message,8.0,1.1079999999999999,49.0,1579190580.0,3377,-0.40720246328282217,2.49000000953674,0.319999992847443,0.119999997317791,2.03999996185303,0.0,6,4,128,927,2243,15,1764,290,56.0,-0.2789721578170139,negative,nonsocial,220.0,"""Inactive people tend to die sooner than active people.""",1579182046,Work,4.0,2.0,1.0,1.0,3.0,3.0,1.0,3.0,0.0,1,328,166,63,99
661.8967632273998,5.0,38.0,rating,8.0,1.1079999999999999,49.0,1579190580.0,3377,-0.40720246328282217,2.49000000953674,0.319999992847443,0.119999997317791,2.03999996185303,0.0,6,4,128,927,2243,15,1764,290,56.0,-0.2789721578170139,negative,nonsocial,220.0,"""Inactive people tend to die sooner than active people.""",1579182046,Work,4.0,2.0,1.0,1.0,3.0,3.0,1.0,3.0,0.0,1,328,166,63,99
666.9960023583335,2.0,39.0,iti,6.0,0.8740000000000001,48.0,1579107180.0,26269,2.388519512516074,19.3700008392334,13.6000003814697,1.58000004291534,4.17000007629395,0.0,183,45,203,612,4129,39,1764,1937,57.0,0.47939875663700987,positive,social,318.0,"""Being physically active can make daily tasks easier to perform, leaving you with more energy to spend time with friends and family.""",1579097324,School,4.0,3.0,1.0,2.0,4.0,4.0,1.0,3.0,10.0,0,0,0,0,0
668.9961640087931,8.0,39.0,message,6.0,0.8740000000000001,48.0,1579107180.0,26269,2.388519512516074,19.3700008392334,13.6000003814697,1.58000004291534,4.17000007629395,0.0,183,45,203,612,4129,39,1764,1937,57.0,0.47939875663700987,positive,social,318.0,"""Being physically active can make daily tasks easier to perform, leaving you with more energy to spend time with friends and family.""",1579097324,School,4.0,3.0,1.0,2.0,4.0,4.0,1.0,3.0,10.0,0,0,0,0,0
677.0122275605245,5.0,39.0,rating,6.0,0.8740000000000001,48.0,1579107180.0,26269,2.388519512516074,19.3700008392334,13.6000003814697,1.58000004291534,4.17000007629395,0.0,183,45,203,612,4129,39,1764,1937,57.0,0.47939875663700987,positive,social,318.0,"""Being physically active can make daily tasks easier to perform, leaving you with more energy to spend time with friends and family.""",1579097324,School,4.0,3.0,1.0,2.0,4.0,4.0,1.0,3.0,10.0,0,0,0,0,0
682.0973857099889,3.0,40.0,iti,7.0,0.8079999999999999,80.0,1581866340.0,8730,0.24654119111397546,6.46000003814697,0.0,0.0,0.0,0.0,0,0,0,1440,2422,11,1764,0,NA,NA,positive,nonsocial,102.0,"""As you become more active, your bones will grow stronger. Stronger bones will help you stay pain free.""",1581853478,Home,4.0,2.0,1.0,2.0,3.0,4.0,1.0,2.0,7.0,0,0,0,0,0
685.1115587780514,8.0,40.0,message,7.0,0.8079999999999999,80.0,1581866340.0,8730,0.24654119111397546,6.46000003814697,0.0,0.0,0.0,0.0,0,0,0,1440,2422,11,1764,0,NA,NA,positive,nonsocial,102.0,"""As you become more active, your bones will grow stronger. Stronger bones will help you stay pain free.""",1581853478,Home,4.0,2.0,1.0,2.0,3.0,4.0,1.0,2.0,7.0,0,0,0,0,0
693.1276214744794,5.0,40.0,rating,7.0,0.8079999999999999,80.0,1581866340.0,8730,0.24654119111397546,6.46000003814697,0.0,0.0,0.0,0.0,0,0,0,1440,2422,11,1764,0,NA,NA,positive,nonsocial,102.0,"""As you become more active, your bones will grow stronger. Stronger bones will help you stay pain free.""",1581853478,Home,4.0,2.0,1.0,2.0,3.0,4.0,1.0,2.0,7.0,0,0,0,0,0
